File: example/Manganese/data/AD09_a_01.xdi
# XDI/1.0 GSE/1.0
# Scan-start_time: 2024-10-08T03:42:36
# Column.1: energy eV
# Column.2: I0_eh2
# Column.3: I1_eh2
# Column.4: IX_eh2
# Column.5: IR_eh2
# Column.6: c8
# Column.7: c9
# Column.8: fluo01
# Column.9: fluo02
# Column.10: fluo03
# Column.11: fluo04
# Column.12: fluo05
# Column.13: fluo06
# Column.14: fluo07
# Column.15: fluo08
# Column.16: fluo09
# Column.17: fluo10
# Column.18: fluo11
# Column.19: fluo12
# Column.20: fluo13
# Column.21: I0_eh1
# Column.22: I1_eh1
# Column.23: IX_eh1
# Mono.name: Si 111
# Mono.d_spacing: 3.134692
# Mono.notes: LNT cooled
# Beamline.name: BM08-LISA
# Facility.name: ESRF
# Facility.xray_source: Bending magnet
# ---------
# BraggEnergy I0_eh2 I1_eh2 IX_eh2 IR_eh2 c8 c9  fluo01  fluo02 fluo03 fluo04 fluo05  fluo06 fluo07  fluo08  fluo09 fluo10  fluo11 fluo12 fluo13 I0_eh1 I1_eh1 IX_eh1
  6394.6  25677  2541  1993    0  0  0 0.000000 0.000000    0    0  0.00 0.000000    0 0.000000 0.000000    0 0.000000    0    0  26923    0 1000015
  6404.59  26206  2574  2016    0  0  0 0.000000 0.000000    0    0  0.00 0.000000    0 0.000000 0.000000    0 0.000000    0    0  26978    0 1000015
  6414.7  26761  2609  2006    0  0  0 0.000000 0.000000    0    0  0.00 0.000000    0 0.000000 0.000000    0 0.000000    0    0  27037    0 1000014
  6424.71  27300  2639  2004    0  0  0 0.000000 0.000000    0    0  0.00 0.000000    0 0.000000 0.000000    0 0.000000    0    0  27090    0 1000015
  6434.8  27806  2685  2031    0  0  0 0.000000 0.000000    0    0  1.00 0.000000    0 0.000000 0.000000    0 0.000000    0    0  27061    0 1000014
  6444.94  28355  2740  2045    0  0  0 0.000000 0.000000    0    0  0.00 0.000000    0 0.000000 0.000000    0 0.000000    0    0  27050    0 1000014
  6454.98  28883  2744  2062    0  0  0 0.000000 0.000000    0    0  0.00 0.000000    0 0.000000 0.000000    0 0.000000    0    0  27123    0 1000014
  6464.96  29491  2783  2077    0  0  0 0.000000 1.333333    0    0  0.00 0.000000    0 0.000000 0.000000    0 0.000000    0    0  27199    0 1000015
  6474.92  30073  2822  2091    0  0  0 0.000000 0.000000    0    0  0.00 0.000000    0 0.000000 0.000000    0 0.000000    0    0  27238    0 1000015
  6484.93  30659  2870  2073    0  0  0 0.000000 0.000000    0    0  0.00 0.000000    0 0.000000 0.000000    0 0.000000    0    0  27265    0 1000015
  6494.91  31250  2910  2102    0  0  0 0.000000 0.000000    1    0  0.00 0.000000    0 0.000000 0.000000    0 0.000000    0    0  27301    0 1000014
  6504.8  31854  2958  2173    0  0  0 0.000000 0.000000    0    0  0.00 0.000000    0 0.000000 7.000000    0 0.000000    0    0  27344    0 1000015
  6514.74  32451  2999  2192    0  0  0 0.000000 0.000000    0    0  0.00 0.000000    0 1.200000 0.000000    0 0.000000    0    0  27380    0 1000013
  6524.71  33046  3043  2173    0  0  0 0.000000 0.000000    0    0  0.00 0.000000    0 0.000000 0.000000    0 0.000000    1    0  27414    0 1000014
  6529.99  31884  2996  2188    0  0  0 0.000000 0.000000    0    0  0.00 0.000000    0 0.000000 0.000000    0 0.000000    0    0  26175    0 1000013
  6530.58  32412  3022  2202    0  0  0 0.000000 0.000000    0    0  0.00 0.000000    0 0.000000 0.000000    0 0.000000    0    0  26598    0 1000013
  6531.18  33457  3064  2199    0  0  0 0.000000 0.000000    0    0  0.00 0.000000    0 0.000000 0.000000    0 0.000000    0    0  27482    0 1000015
  6531.79  33526  3073  2167    0  0  0 0.000000 0.000000    0    0  0.00 0.000000    0 0.000000 0.000000    0 0.000000    0    0  27507    0 1000015
  6532.4  33561  3076  2188    0  0  0 0.000000 0.000000    0    0  0.00 0.000000    0 0.000000 0.000000    0 0.000000    0    0  27504    0 1000014
  6533  33579  3080  2198    0  0  0 0.000000 0.000000    0    0  0.00 0.000000    0 0.000000 0.000000    0 0.000000    0    0  27497    0 1000014
  6533.57  33601  3082  2208    0  0  0 0.000000 0.000000    0    0  0.00 0.000000    0 0.000000 0.000000    0 0.000000    0    0  27493    0 1000014
  6534.16  33625  3085  2206    0  0  0 0.000000 0.000000    0    0  0.00 0.000000    0 0.000000 0.000000    0 0.000000    0    0  27491    0 1000014
  6534.78  33647  3085  2204    0  0  0 0.000000 0.000000    0    0  0.00 0.000000    0 0.000000 0.000000    0 0.000000    0    0  27485    0 1000014
  6535.4  33666  3089  2184    0  0  0 0.000000 0.000000    0    0  0.00 0.000000    0 0.000000 0.000000    0 0.000000    0    0  27480    0 1000014
  6536  33678  3092  2203    0  0  0 0.000000 0.000000    0    0  0.00 0.000000    0 0.000000 0.000000    0 0.000000    0    0  27475    0 1000014
  6536.57  33691  3094  2230    0  0  0 0.000000 0.000000    0    0  0.00 0.000000    0 0.000000 0.000000    0 0.000000    0    0  27471    0 1000014
  6537.15  33695  3094  2220    0  0  0 0.000000 0.000000    0    0  0.00 0.000000    0 1.000000 0.000000    0 0.000000    0    0  27473    0 1000014
  6537.75  33686  3100  2187    0  0  0 0.000000 0.000000    0    0  0.00 0.000000    0 0.000000 0.000000    0 0.000000    0    0  27470    0 1000015
  6538.37  33609  3092  2176    0  0  0 0.000000 0.000000    0    0  0.00 0.000000    0 1.000000 0.000000    0 0.000000    0    0  27473    0 1000015
  6538.96  33416  3082  2184    0  0  0 0.000000 1.000000    0    0  0.00 0.000000    0 0.000000 0.000000    0 0.000000    0    0  27468    0 1000014
  6539.53  33096  3068  2192    0  0  0 0.000000 0.000000    0    0  0.00 0.000000    0 0.000000 0.000000    0 0.000000    0    0  27463    0 1000014
  6540.11  33009  3068  2191    0  0  0 0.000000 0.000000    0    0  0.00 0.000000    0 0.000000 0.000000    0 0.000000    0    0  27463    0 1000014
  6540.71  33280  3083  2215    0  0  0 0.000000 0.000000    0    0  0.00 0.000000    0 0.000000 0.000000    0 0.000000    0    0  27463    0 1000014
  6541.32  33450  3091  2211    0  0  0 0.000000 0.000000    0    0  0.00 0.000000    0 0.000000 0.000000    0 0.000000    0    0  27460    0 1000014
  6541.92  33351  3086  2181    0  0  0 0.000000 0.000000    0    0  0.00 0.000000    0 0.000000 0.000000    0 0.000000    0    0  27458    0 1000014
  6542.51  33110  3078  2212    0  0  0 0.000000 0.000000    0    0  0.00 0.000000    0 0.000000 0.000000    0 0.000000    0    0  27460    0 1000015
  6543.08  32902  3068  2216    0  0  0 0.000000 0.000000    0    0  0.00 0.000000    0 0.000000 0.000000    0 1.000000    0    0  27460    0 1000014
  6543.68  32722  3060  2189    0  0  0 0.000000 0.000000    0    0  0.00 0.000000    0 0.000000 0.000000    0 0.000000    0    0  27456    0 1000015
  6544.28  32489  3049  2173    0  0  0 0.000000 0.000000    0    0  0.00 0.000000    0 0.000000 0.000000    0 0.000000    0    0  27455    0 1000014
  6544.87  32157  3034  2161    0  0  0 0.000000 0.000000    0    0  0.00 0.000000    0 0.000000 0.000000    0 0.000000    0    0  27449    0 1000014
  6545.47  31750  3013  2150    0  0  0 0.000000 0.000000    0    0  0.00 0.000000    0 0.000000 0.000000    0 0.000000    0    0  27446    0 1000014
  6546.06  31240  2991  2142    0  0  0 0.000000 0.000000    0    0  0.00 0.000000    0 0.000000 0.000000    0 0.000000    2    0  27444    0 1000015
  6546.66  30621  2961  2143    0  0  0 0.000000 0.000000    0    0  0.00 0.000000    1 0.000000 0.000000    0 0.000000    0    0  27441    0 1000015
  6547.26  30042  2935  2159    0  0  0 0.000000 0.000000    0    0  0.00 0.000000    0 0.000000 0.000000    0 0.000000    0    0  27442    0 1000014
  6547.85  29562  2915  2145    0  0  0 0.000000 0.000000    0    0  0.00 0.000000    0 0.000000 0.000000    0 0.000000    0    0  27444    0 1000015
  6548.43  29185  2898  2113    0  0  0 5.250000 0.000000    0    0  0.00 0.000000    0 0.000000 0.000000    0 0.000000    0    0  27442    0 1000014
  6549.04  28814  2881  2136    0  0  0 7.300000 0.000000    0    0  0.00 0.000000    0 0.000000 0.000000    0 0.000000    0    0  27446    0 1000014
  6549.65  28466  2866  2132    0  0  0 0.000000 0.000000    0    0  0.00 0.000000    0 0.000000 0.000000    0 0.000000    0    0  27449    0 1000015
  6550.23  28127  2852  2122    0  0  0 0.000000 0.000000    0    0  0.00 0.000000    0 0.000000 0.000000    0 0.000000    0    0  27449    0 1000014
  6550.79  27769  2831  2095    0  0  0 0.000000 1.000000    0    0  0.00 0.000000    0 0.000000 0.000000    0 0.000000    0    0  27448    0 1000014
  6551.39  27391  2816  2071    0  0  0 0.000000 0.000000    0    0  1.00 0.000000    0 0.000000 0.000000    0 0.000000    0    0  27447    0 1000013
  6552  26978  2794  2053    0  0  0 0.000000 0.000000    0    0  0.00 0.000000    1 0.000000 0.000000    0 0.000000    0    0  27444    0 1000014
  6552.6  26583  2777  2069    0  0  0 0.000000 0.000000    0    0  0.00 0.000000    0 0.000000 0.000000    0 0.000000    0    0  27442    0 1000015
  6553.19  26200  2759  2063    0  0  0 0.000000 0.000000    0    0  0.00 0.000000    0 0.000000 0.000000    0 0.000000    0    0  27443    0 1000014
  6553.77  25844  2745  2047    0  0  0 0.000000 0.000000    0    0  0.00 0.000000    0 0.000000 0.000000    0 0.000000    0    0  27441    0 1000015
  6554.35  25513  2729  2052    0  0  0 0.000000 0.000000    0    0  0.00 0.000000    0 0.000000 0.000000    0 0.000000    0    0  27441    0 1000014
  6554.97  25219  2714  2030    0  0  0 0.000000 0.000000    0    0  0.00 0.000000    0 0.000000 0.000000    0 0.000000    0    0  27442    0 1000014
  6555.58  24989  2704  2047    0  0  0 0.000000 0.000000    0    0  0.00 0.000000    0 0.000000 0.000000    0 0.000000    0    0  27440    0 1000015
  6556.16  24800  2698  2063    0  0  0 0.000000 0.000000    0    0  0.00 0.000000    0 0.000000 0.000000    0 0.000000    0    0  27445    0 1000014
  6556.74  24626  2690  2066    0  0  0 0.000000 0.000000    0    0  0.00 0.000000    0 0.000000 0.000000    0 0.000000    0    0  27446    0 1000014
  6557.32  24445  2681  2027    0  0  0 0.000000 0.000000    0    0  0.00 0.000000    0 0.000000 0.000000    0 0.000000    0    0  27450    0 1000014
  6557.94  24241  2670  2007    0  0  0 0.000000 0.000000    0    0  0.00 0.000000    0 0.000000 0.000000    0 0.000000    0    0  27433    0 1000014
  6558.57  24019  2661  2004    0  0  0 0.000000 0.000000    0    0  0.00 0.000000    0 0.000000 0.000000    0 0.000000    0    0  27436    0 1000014
  6559.16  23791  2653  2010    0  0  0 0.000000 0.000000    0    0  0.00 0.000000    0 0.000000 0.000000    0 0.000000    0    0  27438    0 1000013
  6559.76  23557  2639  2017    0  0  0 0.000000 0.000000    0    0  0.00 0.000000    0 0.000000 0.000000    0 0.000000    0    0  27436    0 1000014
  6560.35  23336  2630  2025    0  0  0 0.000000 0.000000    0    0  0.00 0.000000    0 0.000000 0.000000    0 0.000000    0    0  27440    0 1000014
  6560.96  23140  2620  2004    0  0  0 0.000000 0.000000    0    0  0.00 0.000000    0 0.000000 0.000000    0 0.000000    0    0  27459    0 1000014
  6561.58  22990  2614  2002    0  0  0 0.000000 0.000000    0    0  0.00 0.000000    0 0.000000 0.000000    0 0.000000    0    0  27462    0 1000014
  6562.18  22921  2612  2019    0  0  0 0.000000 0.000000    0    0  0.00 0.000000    0 0.000000 0.000000    0 0.000000    0    0  27465    0 1000014
  6562.79  22900  2612  2019    0  0  0 0.000000 0.000000    0    0  0.00 0.000000    0 1.000000 0.000000    0 0.000000    0    0  27465    0 1000014
  6563.39  22949  2616  2017    0  0  0 0.000000 0.000000    0    0  0.00 0.000000    0 0.000000 0.000000    0 0.000000    0    0  27467    0 1000014
  6563.99  23046  2622  2035    0  0  0 0.000000 0.000000    0    0  0.00 0.000000    0 0.000000 0.000000    0 0.000000    0    0  27466    0 1000014
  6564.57  23185  2625  2014    0  0  0 0.000000 0.000000    0    0  0.00 0.000000    0 0.000000 0.000000    0 0.000000    0    0  27464    0 1000014
  6565.17  23365  2638  1988    0  0  0 0.000000 0.000000    0    0  0.00 0.000000    0 0.000000 0.000000    0 0.000000    0    0  27463    0 1000014
  6565.77  23563  2647  2008    0  0  0 0.000000 0.000000    0    0  0.00 0.000000    0 0.000000 0.000000    0 0.000000    0    0  27457    0 1000014
  6566.4  23788  2660  2027    0  0  0 0.000000 0.000000    0    0  0.00 0.000000    0 0.000000 0.000000    0 0.000000    0    0  27453    0 1000015
  6566.99  23993  2671  2031    0  0  0 0.000000 0.000000    0    0  0.00 0.000000    0 0.000000 0.000000    0 0.000000    0    0  27453    0 1000014
  6567.58  24192  2680  2016    0  0  0 0.000000 0.000000    0    0  0.00 0.000000    0 0.000000 0.000000    0 0.000000    0    0  27452    0 1000014
  6568.16  24365  2690  2044    0  0  0 0.000000 0.000000    0    0  0.00 0.000000    0 0.000000 0.000000    0 0.000000    0    0  27450    0 1000014
  6568.77  24529  2700  2055    0  0  0 0.000000 0.000000    0    0  0.00 0.000000    0 0.000000 0.000000    0 0.000000    0    0  27449    0 1000015
  6569.39  24673  2707  2055    0  0  0 0.000000 0.000000    0    0  0.00 0.000000    0 0.000000 5.000000    0 0.000000    0    0  27450    0 1000014
  6570.01  24796  2713  2050    0  0  0 0.000000 0.000000    0    0  0.00 0.000000    0 0.000000 0.000000    0 0.000000    0    0  27453    0 1000014
  6570.6  24910  2720  2078    0  0  0 0.000000 0.000000    0    0  0.00 0.000000    0 0.000000 0.000000    0 0.000000    0    0  27457    0 1000014
  6571.17  25010  2727  2065    0  0  0 0.000000 0.000000    0    0  0.00 0.000000    0 0.000000 0.000000    0 0.000000    0    0  27460    0 1000014
  6571.78  25109  2733  2044    0  0  0 0.000000 0.000000    0    0  0.00 0.000000    0 0.000000 0.000000    0 0.000000    0    0  27461    0 1000015
  6572.39  25200  2738  2046    0  0  0 0.000000 0.000000    0    0  0.00 0.000000    0 0.000000 0.000000    0 0.000000    0    0  27465    0 1000014
  6573.02  25298  2742  2060    0  0  0 0.000000 0.000000    0    0  0.00 0.000000    0 0.000000 0.000000    0 0.000000    0    0  27464    0 1000014
  6573.61  25381  2749  2069    0  0  0 0.000000 0.000000    0    0  0.00 0.000000    0 0.000000 0.000000    0 0.000000    0    0  27463    0 1000015
  6574.2  25468  2754  2070    0  0  0 0.000000 0.000000    0    0  0.00 0.000000    0 0.000000 0.000000    0 0.000000    0    0  27465    0 1000015
  6575.59  25669  2764  2075    0  0  0 0.000000 0.000000    0    0  0.00 0.000000    0 0.000000 0.000000    0 0.000000    0    0  27471    0 1000014
  6577.78  25973  2783  2076    0  0  0 0.000000 0.000000    0    0  0.00 0.000000    0 0.000000 0.000000    0 0.000000    0    0  27482    0 1000014
  6580.09  26336  2804  2076    0  0  0 0.000000 0.000000    0    0  0.00 0.000000    0 0.000000 0.000000    0 1.000000    0    0  27494    0 1000014
  6582.45  26786  2833  2143    0  0  0 0.000000 0.000000    0    0  0.00 0.000000    0 0.000000 0.000000    0 0.000000    0    0  27500    0 1000014
  6584.83  27228  2858  2135    0  0  0 0.000000 0.000000    0    0  0.00 0.000000    0 0.000000 0.000000    0 0.000000    0    0  27512    0 1000014
  6587.32  27528  2875  2127    0  0  0 0.000000 0.000000    0    0  0.00 0.000000    0 0.000000 0.000000    0 0.000000    0    0  27493    0 1000015
  6589.88  27618  2883  2128    0  0  0 0.000000 0.000000    0    0  0.00 0.000000    0 0.000000 0.000000    0 0.000000    0    0  27499    0 1000014
  6592.53  27547  2880  2107    0  0  0 0.000000 0.000000    0    0  0.00 0.000000    0 0.000000 0.000000    0 0.000000    0    0  27523    0 1000015
  6595.25  27464  2882  2125    0  0  0 0.000000 0.000000    0    0  0.00 0.000000    0 0.000000 0.000000    0 0.000000    0    0  27535    0 1000014
  6598.07  27396  2883  2107    0  0  0 0.000000 0.000000    0    0  0.00 0.000000    0 0.000000 0.000000    0 1.000000    0    0  27537    0 1000014
  6600.97  27498  2894  2144    0  0  0 0.000000 0.000000    0    0  0.00 0.000000    0 0.000000 0.000000    0 0.000000    0    0  27550    0 1000014
  6603.97  27629  2903  2107    0  0  0 0.000000 0.000000    0    0  0.00 0.000000    0 0.000000 0.000000    0 1.000000    0    0  27564    0 1000014
  6606.98  27757  2914  2130    0  0  0 0.000000 0.000000    0    0  0.00 0.000000    0 0.000000 0.000000    0 0.000000    0    0  27576    0 1000014
  6610.12  27877  2925  2133    0  0  0 0.000000 0.000000    0    0  0.00 0.000000    0 0.000000 0.000000    0 0.000000    0    0  27584    0 1000014
  6613.29  28017  2936  2133    0  0  0 0.000000 0.000000    0    0  0.00 0.000000    1 0.000000 0.000000    0 0.000000    0    0  27594    0 1000015
  6616.53  28152  2949  2133    0  0  0 0.000000 0.000000    0    0  0.00 0.000000    0 0.000000 0.000000    0 0.000000    0    0  27610    0 1000015
  6619.88  28237  2956  2141    0  0  0 0.000000 0.000000    0    0  0.00 0.000000    0 0.000000 0.000000    0 0.000000    0    0  27622    0 1000015
  6623.28  28272  2965  2140    0  0  0 0.000000 0.000000    0    0  0.00 0.000000    0 0.000000 0.000000    0 0.000000    1    0  27625    0 1000014
  6626.72  28294  2972  2106    0  0  0 0.000000 0.000000    0    0  0.00 0.000000    0 0.000000 0.000000    0 0.000000    0    0  27634    0 1000014
  6630.24  28364  2981  2150    0  0  0 0.000000 0.000000    0    0  0.00 0.000000    0 0.000000 0.000000    0 1.300000    0    0  27634    0 1000015
  6633.86  28550  2996  2125    0  0  0 0.000000 0.000000    0    0  0.00 1.000000    0 0.000000 0.000000    0 0.000000    0    0  27653    0 1000014
  6637.57  28828  3017  2155    0  0  0 0.000000 0.000000    0    0  0.00 0.000000    0 0.000000 0.000000    0 0.000000    0    0  27668    0 1000015
  6641.37  29158  3039  2153    0  0  0 0.000000 0.000000    0    0  0.00 0.000000    0 0.000000 0.000000    0 0.000000    0    0  27673    0 1000014
  6645.27  29510  3066  2186    0  0  0 0.000000 0.000000    0    0  0.00 0.000000    0 0.000000 0.000000    0 0.000000    0    0  27681    0 1000013
  6649.25  29826  3089  2174    0  0  0 0.000000 0.000000    1    0  0.00 0.000000    0 0.000000 0.000000    0 0.000000    0    0  27679    0 1000014
  6653.26  30160  3113  2191    0  0  0 0.000000 0.000000    0    0  0.00 0.000000    0 0.000000 0.000000    0 0.000000    0    0  27701    0 1000015
  6657.33  30440  3135  2188    0  0  0 0.000000 0.000000    0    0  0.00 0.000000    0 0.000000 0.000000    0 0.000000    0    0  27708    0 1000014
  6661.48  30728  3158  2193    0  0  0 0.000000 0.000000    0    0  0.00 0.000000    0 0.000000 0.000000    0 0.000000    0    0  27721    0 1000013
  6665.67  31002  3179  2203    0  0  0 0.000000 0.000000    0    0  0.00 0.000000    0 0.000000 0.000000    0 0.000000    0    0  27736    0 1000013
  6669.93  31287  3203  2216    0  0  0 0.000000 0.000000    0    0  0.00 0.000000    0 0.000000 0.000000    0 0.000000    0    0  27744    0 1000015
  6674.34  31605  3239  2229    0  0  0 0.000000 0.000000    0    0  0.00 0.000000    0 0.000000 0.000000    0 0.000000    0    0  27759    0 1000014
  6678.87  31851  3250  2233    0  0  0 0.000000 0.000000    0    0  0.00 0.000000    0 0.000000 0.000000    0 0.000000    0    0  27770    0 1000014
  6683.47  32081  3271  2244    0  0  0 0.000000 0.000000    0    0  0.00 0.000000    0 0.000000 0.000000    0 0.000000    0    0  27783    0 1000014
  6688.18  32272  3290  2252    0  0  0 0.000000 0.000000    0    0  0.00 0.000000    0 0.000000 0.000000    0 0.000000    0    0  27789    0 1000014
  6692.93  32417  3308  2250    0  0  0 0.000000 0.000000    0    0  0.00 0.000000    0 0.000000 0.000000    0 0.000000    0    0  27782    0 1000015
  6697.74  32642  3328  2278    0  0  0 0.000000 0.000000    0    0  0.00 0.000000    0 0.000000 0.000000    0 0.000000    0    0  27785    0 1000014
  6702.66  32914  3362  2284    0  0  0 0.000000 0.000000    0    0  0.00 3.000000    0 0.000000 0.000000    0 0.000000    0    0  27812    0 1000014
  6707.59  33184  3382  2296    0  0  0 0.000000 0.000000    0    0  0.00 0.000000    0 0.000000 0.000000    0 0.000000    0    0  27815    0 1000013
  6712.65  33514  3412  2317    0  0  0 7.714286 0.000000    0    0  0.00 0.000000    0 0.000000 0.000000    0 0.000000    0    0  27831    0 1000015
  6717.76  33866  3440  2306    0  0  0 0.000000 0.000000    0    0  0.00 0.000000    0 0.000000 0.000000    0 0.000000    0    0  27865    0 1000014
  6722.92  34212  3470  2325    0  0  0 0.000000 0.000000    0    0  0.00 0.000000    0 0.000000 0.000000    0 0.000000    0    0  27875    0 1000015
  6728.23  34580  3502  2334    0  0  0 0.000000 0.000000    0    0  0.00 0.000000    0 0.000000 0.000000    0 0.000000    0    0  27896    0 1000013
  6733.66  34945  3536  2343    0  0  0 0.000000 0.000000    0    0  0.00 0.000000    0 0.000000 0.000000    0 0.000000    0    0  27910    0 1000014
  6739.1  35305  3570  2382    0  0  0 0.000000 0.000000    0    0  0.00 0.000000    0 0.000000 0.000000    0 0.000000    0    0  27919    0 1000014
  6744.61  35663  3601  2365    0  0  0 0.000000 0.000000    0    0  0.00 0.000000    0 0.000000 0.000000    0 0.000000    0    0  27930    0 1000014
  6750.17  36049  3637  2387    0  0  0 0.000000 0.000000    0    0  0.00 0.000000    0 0.000000 0.000000    0 0.000000    0    0  27942    0 1000014
  6755.73  36443  3672  2415    0  0  0 0.000000 0.000000    0    0  0.00 1.000000    0 0.000000 0.000000    0 0.000000    0    0  27954    0 1000015
  6761.42  36831  3708  2444    0  0  0 0.000000 0.000000    0    0  0.00 0.000000    0 0.000000 0.000000    0 0.000000    0    0  27956    0 1000014
  6767.18  37196  3745  2464    0  0  0 0.000000 0.000000    0    0  0.00 0.000000    0 0.000000 0.000000    0 0.000000    0    0  27932    0 1000014
  6773.04  37705  3788  2492    0  0  0 13.1429 0.000000    0    0  0.00 0.000000    0 0.000000 0.000000    0 0.000000    0    0  28015    0 1000014
  6779  38123  3832  2521    0  0  0 0.000000 0.000000    0    0  0.00 0.000000    0 0.000000 0.000000    0 0.000000    0    0  28021    0 1000014
  6785.09  38548  3868  2524    0  0  0 0.000000 0.000000    0    0  0.00 0.000000    0 0.000000 0.000000    0 0.000000    0    0  28031    0 1000014
  6791.24  38961  3911  2551    0  0  0 0.000000 0.000000    0    0  1.00 0.000000    0 0.000000 0.000000    0 0.000000    0    0  28037    0 1000014
  6797.41  39399  3955  2543    0  0  0 0.000000 0.000000    0    0  0.00 0.000000    0 0.000000 0.000000    0 0.000000    0    0  28049    0 1000015
  6803.65  39760  3989  2566    0  0  0 0.000000 0.000000    0    0  0.00 1.000000    0 0.000000 0.000000    0 0.000000    0    0  28039    0 1000015
  6809.98  39334  3975  2539    0  0  0 0.000000 0.000000    0    0  0.00 0.000000    0 0.000000 0.000000    0 0.000000    0    0  27441    0 1000014
  6816.46  40631  4070  2573    0  0  0 0.000000 0.000000    0    0  0.00 0.000000    0 0.000000 0.000000    0 0.000000    0    0  28099    0 1000013
  6823.06  41066  4124  2602    0  0  0 6.600000 1.000000    0    0  0.00 0.000000    0 0.000000 0.000000    0 0.000000    0    0  28093    0 1000015
  6829.67  41505  4167  2617    0  0  0 0.000000 0.000000    0    0  0.00 0.000000    0 0.000000 0.000000    0 0.000000    0    0  28099    0 1000014
  6836.33  41971  4216  2644    0  0  0 0.000000 0.000000    0    0  0.00 0.000000    0 0.000000 0.000000    0 0.000000    0    0  28106    0 1000014
  6843.07  42457  4265  2687    0  0  0 0.000000 0.000000    0    0  0.00 0.000000    0 0.000000 0.000000    0 0.000000    0    0  28116    0 1000014
  6849.95  42978  4321  2721    0  0  0 0.000000 0.000000    0    0  0.00 0.000000    0 0.000000 0.000000    0 0.000000    0    0  28128    0 1000013
  6856.9  43521  4374  2701    0  0  0 0.000000 0.000000    0    0  0.00 0.000000    0 0.000000 0.000000    0 0.000000    0    0  28140    0 1000014
  6863.95  44083  4432  2747    0  0  0 0.000000 0.000000    0    0  0.00 0.000000    0 0.000000 0.000000    0 0.000000    0    0  28151    0 1000014
  6871.01  44632  4488  2770    0  0  0 0.000000 0.000000    0    0  0.00 0.000000    0 0.000000 0.000000    0 0.000000    0    0  28161    0 1000014
  6878.09  45204  4547  2787    0  0  0 0.000000 0.000000    0    0  0.00 0.000000    0 0.000000 0.000000    0 0.000000    0    0  28182    0 1000014
  6885.25  45760  4606  2808    0  0  0 0.000000 0.000000    0    0  0.00 0.000000    0 0.000000 0.000000    0 0.000000    0    0  28192    0 1000015
  6892.51  46313  4667  2814    0  0  0 0.000000 0.000000    0    0  0.00 0.000000    0 0.000000 0.000000    0 0.000000    0    0  28205    0 1000014
  6899.78  46848  4727  2871    0  0  0 0.000000 0.000000    0    0  0.00 0.000000    0 0.000000 0.000000    0 0.000000    0    0  28204    0 1000014
  6907.14  47408  4788  2872    0  0  0 0.000000 0.000000    0    0  0.00 0.000000    0 0.000000 0.000000    0 0.000000    0    0  28216    0 1000015
  6914.62  47980  4852  2907    0  0  0 0.000000 0.000000    0    0  0.00 0.000000    0 0.000000 0.000000    0 0.000000    0    0  28219    0 1000014
  6922.15  48497  4912  2928    0  0  0 0.000000 0.000000    0    0  0.00 0.000000    0 0.000000 0.000000    0 0.000000    0    0  28184    0 1000014
  6929.66  49116  4980  2927    0  0  0 0.000000 0.000000    0    0  0.00 0.000000    1 0.000000 0.000000    0 0.000000    0    0  28204    0 1000015
  6937.31  49739  5048  2974    0  0  0 0.000000 0.000000    0    0  0.00 0.000000    0 0.000000 0.000000    0 0.000000    0    0  28206    0 1000014
  6945.14  50382  5122  2977    0  0  0 0.000000 0.000000    0    0  0.00 0.000000    0 0.000000 0.000000    0 0.000000    0    0  28222    0 1000015
  6952.92  50958  5190  3001    0  0  0 0.000000 0.000000    0    0  0.00 0.000000    0 0.000000 0.000000    0 0.000000    0    0  28199    0 1000014
  6960.86  51638  5269  3022    0  0  0 0.000000 0.000000    0    0  0.00 0.000000    0 0.000000 0.000000    0 0.000000    0    0  28235    0 1000014
  6968.87  52299  5344  3046    0  0  0 0.000000 0.000000    0    0  0.00 0.000000    0 0.000000 0.000000    0 0.000000    0    0  28249    0 1000014
  6976.93  52943  5422  3076    0  0  0 0.000000 0.000000    0    0  0.00 0.000000    0 0.000000 0.000000    0 0.000000    0    0  28250    0 1000014
  6985  53625  5503  3103    0  0  0 0.000000 0.000000    0    0  0.00 0.000000    0 0.000000 0.000000    0 0.000000    0    0  28252    0 1000014
  6993.24  54336  5582  3132    0  0  0 0.000000 0.000000    0    0  0.00 0.000000    0 0.000000 0.000000    0 0.000000    0    0  28270    0 1000014
  7001.52  55026  5669  3172    0  0  0 0.000000 0.000000    0    0  0.00 0.000000    1 0.000000 0.000000    0 0.000000    0    0  28272    0 1000014
  7009.96  55774  5757  3210    0  0  0 0.000000 0.000000    0    0  0.00 0.000000    0 0.000000 0.000000    0 0.000000    0    0  28288    0 1000014
  7018.39  56490  5851  3253    0  0  0 0.000000 0.000000    0    0  0.00 0.000000    0 0.000000 0.000000    0 0.000000    0    0  28278    0 1000014
  7026.86  57122  5930  3295    0  0  0 0.000000 0.000000    0    0  0.00 0.000000    0 0.000000 0.000000    0 0.000000    0    0  28236    0 1000013
  7035.38  57979  6031  3325    0  0  0 0.000000 0.000000    0    0  0.00 0.000000    0 0.000000 0.000000    0 0.000000    0    0  28295    0 1000014
  7044.07  58784  6132  3357    0  0  0 0.000000 0.000000    0    0  0.00 0.000000    0 0.000000 0.000000    0 0.000000    0    0  28312    0 1000014
  7052.81  59565  6231  3401    0  0  0 0.000000 0.000000    0    0  0.00 0.000000    0 0.000000 0.000000    0 0.000000    0    0  28313    0 1000014
  7061.51  60350  6333  3461    0  0  0 0.000000 0.000000    0    0  0.00 0.000000    0 0.000000 0.000000    0 0.000000    0    0  28312    0 1000015
  7070.4  61170  6438  3494    0  0  0 0.000000 1.000000    0    0  0.00 0.000000    0 0.000000 0.000000    0 0.000000    0    0  28319    0 1000014
  7079.24  61981  6545  3533    0  0  0 0.000000 0.000000    0    0  0.00 0.000000    0 0.000000 0.000000    0 0.000000    0    0  28324    0 1000015
  7088.32  62817  6653  3563    0  0  0 0.000000 0.000000    0    0  0.00 0.000000    0 0.000000 0.000000    0 0.000000    0    0  28335    0 1000015
  7097.5  63625  6762  3578    0  0  0 0.000000 0.000000    0    0  0.00 0.000000    0 0.000000 0.000000    0 0.000000    0    0  28326    0 1000014
  7106.61  64485  6879  3601    0  0  0 0.000000 0.000000    0    0  0.00 0.000000    0 0.000000 0.000000    0 0.000000    0    0  28335    0 1000015
  7115.74  64399  6912  2888    0  0  0 0.000000 0.000000    0    0  0.00 0.000000    0 0.000000 0.000000    0 0.000000    0    0  27930    0 1000015
  7125.03  63920  6914  2261    0  0  0 0.000000 0.000000    0    0  0.00 0.000000    0 0.000000 0.000000    0 0.000000    0    0  27423    0 1000014
  7134.54  63395  6913  2162    0  0  0 0.000000 0.000000    0    0  0.00 0.000000    0 0.000000 0.000000    0 0.000000    0    0  26933    0 1000015
  7144.14  64609  7062  2156    0  0  0 0.000000 0.000000    0    0  0.00 0.000000    0 0.000000 0.000000    0 0.000000    0    0  27055    0 1000014
  7153.76  65925  7222  2131    0  0  0 0.000000 0.000000    0    0  0.00 0.000000    0 0.000000 0.000000    0 0.000000    0    0  27203    0 1000014
  7163.42  66683  7336  2164    0  0  0 0.000000 0.000000    0    0  0.00 0.000000    0 0.000000 0.000000    0 0.000000    0    0  27135    0 1000013
  7173.19  67253  7432  2175    0  0  0 0.000000 0.000000    0    0  0.00 0.000000    0 0.000000 0.000000    0 0.000000    0    0  27013    0 1000014
  7183.1  68206  7566  2227    0  0  0 0.000000 0.000000    0    0  0.00 0.000000    0 0.000000 0.000000    0 0.000000    0    0  27027    0 1000014
  7193.17  69257  7712  2186    0  0  0 0.000000 0.000000    0    0  0.00 0.000000    0 0.000000 0.000000    0 0.000000    0    0  27072    0 1000014
  7203.13  70311  7867  2295    0  0  0 0.000000 0.000000    0    0  0.00 0.000000    0 0.000000 0.000000    0 0.000000    0    0  27110    0 1000014
  7213.18  71201  7996  2281    0  0  0 0.000000 0.000000    0    0  0.00 0.000000    0 0.000000 0.000000    0 0.000000    0    0  27078    0 1000014
  7223.24  72223  8145  2182    0  0  0 0.000000 0.000000    0    0  0.00 0.000000    0 0.000000 0.000000    0 0.000000    0    0  27088    0 1000014
  7233.39  73201  8288  2341    0  0  0 0.000000 0.000000    0    0  0.00 0.000000    0 0.000000 0.000000    0 0.000000    0    0  27086    0 1000014
  7243.71  74145  8432  2384    0  0  0 0.000000 0.000000    0    0  0.00 0.000000    0 0.000000 0.000000    0 0.000000    0    0  27054    0 1000014
  7254.13  75229  8593  2367    0  0  0 0.000000 0.000000    0    0  0.00 0.000000    0 0.000000 0.000000    0 0.000000    0    0  27073    0 1000015
  7264.58  76330  8758  2367    0  0  0 0.000000 0.000000    0    0  0.00 0.000000    1 0.000000 0.000000    0 0.000000    0    0  27094    0 1000014
  7275.09  77380  8917  2346    0  0  0 0.000000 0.000000    0    0  0.00 0.000000    0 0.000000 0.000000    0 0.000000    0    0  27089    0 1000014
  7285.8  78443  9081  2313    0  0  0 0.000000 0.000000    0    0  0.00 0.000000    0 0.000000 0.000000    0 0.000000    0    0  27084    0 1000014
  7291.21  79009  9171  2357    0  0  0 0.000000 0.000000    0    0  0.00 0.000000    0 0.000000 0.000000    0 0.000000    0    0  27089    0 1000014