File: example/Fe/As_200e_39_01.xdi
# XDI/1.0 GSE/1.0
# Scan-start_time: 2024-10-06T11:13:32
# Column.1: energy eV
# Column.2: I0_eh2
# Column.3: I1_eh2
# Column.4: IX_eh2
# Column.5: IR_eh2
# Column.6: c8
# Column.7: c9
# Column.8: fluo01
# Column.9: fluo02
# Column.10: fluo03
# Column.11: fluo04
# Column.12: fluo05
# Column.13: fluo06
# Column.14: fluo07
# Column.15: fluo08
# Column.16: fluo09
# Column.17: fluo10
# Column.18: fluo11
# Column.19: fluo12
# Column.20: fluo13
# Column.21: I0_eh1
# Column.22: I1_eh1
# Column.23: IX_eh1
# Mono.name: Si 111
# Mono.d_spacing: 3.134692
# Mono.notes: LNT cooled
# Beamline.name: BM08-LISA
# Facility.name: ESRF
# Facility.xray_source: Bending magnet
# ---------
# BraggEnergy I0_eh2 I1_eh2 IX_eh2 IR_eh2 c8 c9    fluo01   fluo02    fluo03 fluo04   fluo05   fluo06   fluo07   fluo08   fluo09    fluo10   fluo11   fluo12 fluo13 I0_eh1 I1_eh1 IX_eh1
 11725.8  88470 166082  39814    0  0  0  920.286  1680.09  1031.52    0  1447.85  1490.38  1760.34  1527.65  1694.57  1169.49  1815.2  1149.5    0  11499    0 2000028
 11735.5  88409 166504  39829    0  0  0  931.671  1767.68  1042.26    0  1506.29  1513.78  1806.72  1532.93  1630.45  1718.25  1777.51  1138.26    0  11484    0 2000029
 11745.3  88322 166806  39898    0  0  0  953.901  1674.54  1060.17    0  1520.58  1416.34  1778.99  1566.96  1672.56  3095.33  1824.87  1222.19    0  11472    0 2000029
 11755.2  88220 167118  39878    0  0  0  1009.02  1748.13  976.216    0  1563.01  1552.89  1841.34  1518.22  1734.09  3171.15  1880.47  1181.53    0  11456    0 2000028
 11765.1  88131 167450  39841    0  0  0  946.468  1852.39  1008.47    0  1576.2  1572.09  1933.62  1584.81  1775.54  3645.67  1973.44  1153.45    0  11442    0 2000029
 11775.1  88036 167767  39829    0  0  0  1017.05  1911.57  1016.48    0  1601.55  1694.44  1963.53  1668.34  1738.71  2954.59  1981  1163.29    0  11427    0 2000029
 11785  87920 168063  39800    0  0  0  1015.72  1952.35  1129.26    0  1657.91  1717.26  2043.98  1760.34  1922.41  3660.2  2094.68  1196.09    0  11410    0 2000028
 11794.9  87832 168369  39753    0  0  0  1093.89  2105.35  1207.46    0  1731.98  1822.86  2112.14  1828.81  1986.73  3411.86  2209.14  1232.7    0  11389    0 2000028
 11804.8  87742 168672  39778    0  0  0  1215.18  2337.74  1277.15    0  1943.02  1967.93  2295.96  2016.37  2193.7  3189.53  2429.47  1302.13    0  11373    0 2000028
 11814.8  87224 168175  39705    0  0  0  1342.92  2526.03  1330.38    0  2024.17  2197.78  2435.21  2191.56  2371.72  3577.21  2600.37  1432.07    0  11311    0 2000028
 11824.7  87548 169296  39810    0  0  0  1539.87  2809.59  1546.65    0  2401.69  2485.16  2780.49  2511.59  2664.52  3789.52  2982.38  1557.93    0  11344    0 2000028
 11834.7  87447 169574  39750    0  0  0  1811.8  3434.17  1710.42    0  2936.29  3062.95  3199.45  3106.36  3291.46  3846.12  3456.32  1739    0  11327    0 2000028
 11844.6  87338 169793  39671    0  0  0  2348.88  4419.95  2295.15    0  3783.82  3999.36  4144.11  3946.12  4230.65  2987.36  4588.53  2144.03    0  11315    0 2000028
 11854.5  87230 169906  39645    0  0  0  3479.04  6854.52  3454.45    0  5788.16  6283.78  6411.45  6028.14  6504.92  4007.9  7224.36  3239.32    0  11292    0 2000028
 11859.5  87035 169590  39600    0  0  0  5063.82  9343.18  5055.9    0  8233.61  8562.09  8968.08  8719.22  9165.51  3566.42  9953.45  4300.03    0  11270    0 2000029
 11859.9  86968 169450  39591    0  0  0  5125.73 10037.6  5036.62    0  8417.57  8863.9  9172.76  9196.25  9458.78  3106.08 10286.6  4310.34    0  11262    0 2000028
 11860.3  86911 169317  39611    0  0  0  5246.14 10003.9  5335.05    0  8711.11  9167.2  9307.34  9492.23  9818.35  2148.39 10773.3  4343.39    0  11254    0 2000028
 11860.7  86867 169240  39627    0  0  0  5425.86 10395  5480.62    0  9110.66  9669.67  9707.45  9744.39 10321.3  3668.52 11028.4  4634.34    0  11249    0 2000028
 11861.1  86858 169205  39642    0  0  0  5721.72 10823.5  5680.31    0  9466.26  9865.45 10210.7 10003.6 10708.3  1286.31 11312.4  4872.69    0  11245    0 2000028
 11861.5  86911 169277  39671    0  0  0  5835.53 11385.5  5834.93    0  9799.09 10337.9 10589.5 10700.6 10967  2351.28 12039.7  5032.14    0  11253    0 2000028
 11861.9  86988 169434  39614    0  0  0  6262.35 11792.6  6091.77    0 10124.2 10833.4 11081.2 10968.5 11577.4  3043.8 12206.9  5184.35    0  11266    0 2000028
 11862.3  87046 169521  39620    0  0  0  6421.17 12144.3  6438.81    0 10509.4 11045.3 11229.2 11664.4 11885.6  3378.81 12991.9  5395.65    0  11273    0 2000028
 11862.7  87064 169516  39666    0  0  0  6666.4 12822.3  6517.99    0 11009.5 11429.2 11848.8 11659.6 12513.4  2082.57 13560.3  5625.59    0  11273    0 2000028
 11863.1  87072 169493  39612    0  0  0  7049.48 13269.4  6704.01    0 11656.6 12207.1 12491.4 12410 13078  1812.33 13976.6  5934.33    0  11278    0 2000028
 11863.5  87072 169484  39631    0  0  0  7218.4 14066.7  7223.22    0 12329.4 12895.4 12941.6 13095.3 13907.5  441.169 14663.2  6133.27    0  11276    0 2000028
 11863.9  87075 169452  39673    0  0  0  7769.25 14570.7  7752.32    0 12506.5 13476 13701.6 13584.8 14334  2578.4 15635.9  6427.25    0  11272    0 2000028
 11864.2  87069 169394  39618    0  0  0  7988.8 15282.2  8014.47    0 13471.3 14111.6 14416.4 14485.5 15444.8  1449.04 15991.8  6849.68    0  11273    0 2000028
 11864.6  87061 169330  39642    0  0  0  8490.8 16386.9  8396.12    0 14272.6 15162.3 15102.7 15243.6 15966  673.868 17275.3  7210.96    0  11276    0 2000028
 11865  87064 169291  39652    0  0  0  8986.73 17154.9  8900.39    0 14971.5 16004 15648.4 16121.6 16705.8  951.013 18105.2  7411.17    0  11274    0 2000028
 11865.5  87051 169193  39584    0  0  0  9505.26 18177.8  9488.86    0 15925.6 16854.1 16844.7 17354 17719  908.176 19208.6  7879.36    0  11268    0 2000028
 11865.8  87046 169138  39647    0  0  0 10217.1 19155.9  9950.52    0 16689.1 17881.9 17663.5 18043 19014.3  1110.02 20335.5  8530.59    0  11232    0 2000028
 11866.2  87035 169024  39602    0  0  0 10754.6 20617.9 10652.8    0 17812.3 19181.5 18745.5 19309.9 20052.2  1250.96 21709.2  8814.08    0  11230    0 2000028
 11866.5  87018 168909  39561    0  0  0 11278.5 21588 11508.4    0 18971.2 20440.1 20501.9 20833.4 21495  3043.7 22980.8  9196.84    0  11227    0 2000028
 11866.9  87005 168779  39617    0  0  0 12607.3 23754.3 11955.5    0 20780.7 22036.4 21896.8 22436.3 22899.5  3531.41 24858 10060    0  11230    0 2000028
 11867.3  86993 168638  39545    0  0  0 13389.8 25497.4 13311.2    0 22244.7 23579.5 23501.8 24065.3 25014.8  6197.25 26778.2 11052.4    0  11226    0 2000028
 11867.8  86994 168481  39545    0  0  0 14764.4 27835.4 14457.7    0 24362.6 25712.5 25559.8 26095.1 27443  7063.23 29414.5 11979    0  11226    0 2000029
 11868.2  87028 168360  39725    0  0  0 15857.4 30760.1 15802.3    0 26433.6 28581.1 27899.8 28675.9 29571.4  8707.59 32059.7 12936.8    0  11227    0 2000028
 11868.6  87018 168148  39586    0  0  0 17621.5 33704.9 17660.2    0 29456.7 31220.5 30906.5 31948.7 33379.5 15620.8 35643.6 14456.8    0  11227    0 2000028
 11868.9  87007 167850  39624    0  0  0 19600.5 37784 19709.3    0 32834.9 34949.8 34197 35655.5 36777.3 18669.5 39841 15968.8    0  11228    0 2000028
 11869.3  87002 167533  39571    0  0  0 22444 42124.2 22259.8    0 37135.7 39424.9 39148.9 40093 41458.2 20573.1 44352.1 17936.7    0  11229    0 2000028
 11869.7  87002 167162  39514    0  0  0 25737.9 49364 25319    0 43013.4 46067.5 45053 45859.2 48159.7 11708.8 51852.1 21035.3    0  11226    0 2000029
 11870.2  86983 166726  39528    0  0  0 29341.8 56657.8 29561.2    0 49685.9 53112.3 51884.4 53196 55587.2 22166.9 59789.3 23476.4    0  11220    0 2000028
 11870.6  86980 165969  39499    0  0  0 34830 67967.7 35220.2    0 59337.8 62909.9 61619.5 63007.9 65005 23805.3 70474.1 27824.1    0  11217    0 2000028
 11871  86964 164881  39425    0  0  0 43381 81043.9 42778.2    0 72386.5 76755.6 74432.3 77171.3 79457.7 30872.1 85586.9 35078.2    0  11256    0 2000028
 11871.3  86956 163509  39422    0  0  0 52456.5 100347 52615.6    0 88942.6 95375.7 91047.8 95017.5 97529.8 45437.6 104393 42746.6    0  11255    0 2000028
 11871.7  86947 161421  39309    0  0  0 67325.8 127821 67061.3    0 113931 121563 116321 120872 123588 45835.8 133913 54006.3    0  11254    0 2000028
 11872.1  86940 159119  39275    0  0  0 84503.4 158527 83922.5    0 141517 149462 142904 149598 153166 19899.9 165034 67633.5    0  11252    0 2000028
 11872.5  86933 156457  39291    0  0  0 102977 193594 102804    0 172229 182204 174675 181829 185616 30334.8 201033 82679.6    0  11255    0 2000028
 11873  86914 153656  39167    0  0  0 122945 229767 122661    0 203811 216994 209508 215083 220025 21818.8 238373 98843.1    0  11248    0 2000029
 11873.3  86906 151054  39201    0  0  0 141120 264674 142069    0 236146 249770 241573 248804 253931 37920 275152 115760    0  11250    0 2000028
 11873.7  86891 148864  39165    0  0  0 153841 292341 158538    0 260338 275952 268498 274107 277282 35536.3 302406 126679    0  11249    0 2000028
 11874.1  86875 147285  39099    0  0  0 167586 316852 172471    0 282645 298706 288190 296434 299485 30025.5 327621 136746    0  11243    0 2000028
 11874.5  86854 146489  39158    0  0  0 176718 330707 178693    0 292250 310809 300491 308771 313497 20998.9 338684 145828    0  11239    0 2000028
 11874.9  86823 146092  39136    0  0  0 181798 343130 185267    0 302419 320551 310748 318755 324171 83792.1 351287 153072    0  11237    0 2000028
 11875.3  86787 145675  39067    0  0  0 186330 353114 190952    0 309963 330350 319279 329530 332799 164889 361373 155606    0  11228    0 2000028
 11875.7  86721 144820  39148    0  0  0 195536 372868 200337    0 326372 347156 334590 344952 346400 133784 377743 162553    0  11218    0 2000029
 11876.1  86525 142926  39108    0  0  0 215048 403532 218449    0 353799 375124 364175 373059 380398 194899 409393 181828    0  11196    0 2000027
 11876.5  86158 140290  39030    0  0  0 233190 435601 238055    0 385050 409289 392069 406348 415340 188448 444840 198208    0  11151    0 2000028
 11876.8  85923 137530  39125    0  0  0 252228 471566 260475    0 418174 442108 427548 439347 443751 178806 480872 213524    0  11125    0 2000028
 11877.3  85791 135129  39229    0  0  0 271803 505624 282482    0 450863 477432 462110 470073 471938 88791.4 513804 229533    0  11106    0 2000028
 11877.7  85740 133672  39206    0  0  0 288217 524897 294954    0 472153 499306 483809 491487 493518 31484.4 536414 242817    0  11100    0 2000028
 11878.1  85764 133602  39266    0  0  0 287259 529430 297490    0 471467 500781 487399 492400 495060 67607.6 537131 243454    0  11101    0 2000028
 11878.5  85961 135373  39258    0  0  0 276542 512248 285423    0 455463 482107 467986 476041 481720 126460 518094 234393    0  11126    0 2000028
 11878.9  86179 138059  39304    0  0  0 257483 481861 268398    0 427075 455118 438327 449177 451254 223730 488973 216913    0  11148    0 2000029
 11879.3  86292 141040  39381    0  0  0 232850 445135 244026    0 391730 415907 401882 413949 413915 219851 450155 197521    0  11164    0 2000028
 11879.7  86347 143863  39387    0  0  0 212935 404681 218986    0 353155 375859 363138 372945 376968 190162 407994 180318    0  11170    0 2000027
 11880.1  86316 146101  39424    0  0  0 194760 368627 199080    0 321974 342386 334122 338506 346673 179023 373577 166721    0  11165    0 2000028
 11880.5  86291 147812  39448    0  0  0 175393 336502 180720    0 293815 314215 306498 312405 315545 165203 344672 148727    0  11164    0 2000029
 11880.9  86305 149232  39431    0  0  0 164210 314640 169962    0 275701 293302 286396 291740 293963 154471 321813 137206    0  11165    0 2000027
 11881.3  86350 150098  39472    0  0  0 159755 301067 161874    0 266305 280101 274212 279910 283911 142827 309653 133551    0  11167    0 2000029
 11881.7  86490 150851  39476    0  0  0 153706 292265 157150    0 258800 271987 265173 270820 275610 142766 300089 130007    0  11183    0 2000028
 11882.1  86619 151377  39365    0  0  0 151658 286939 154630    0 254299 269212 263312 266685 271165 112363 296253 127032    0  11196    0 2000029
 11882.5  86756 151800  39487    0  0  0 149055 284714 153261    0 251390 265767 260088 264661 268115 135248 292365 125448    0  11217    0 2000028
 11882.9  86790 151959  39414    0  0  0 150079 282732 152423    0 249154 265564 259524 265255 268487 124579 291607 124942    0  11220    0 2000029
 11883.3  86786 152030  39416    0  0  0 148324 282405 152203    0 249826 264187 258791 262954 268063 127446 291615 124927    0  11218    0 2000028
 11883.7  86776 152053  39443    0  0  0 149244 283185 152185    0 249679 263499 257954 262378 268496 131793 290601 125701    0  11177    0 2000028
 11884.1  86765 152121  39385    0  0  0 147211 282790 151364    0 247749 261986 256819 262327 265853 133542 288632 123948    0  11197    0 2000028
 11884.5  86755 152193  39378    0  0  0 145217 280948 151085    0 249136 263591 258395 263613 264241 133863 291054 121293    0  11216    0 2000029
 11884.9  86745 152294  39398    0  0  0 145019 278904 150327    0 246803 261343 256867 260759 260486 126682 286995 121505    0  11216    0 2000028
 11885.3  86738 152389  39339    0  0  0 148196 278432 149520    0 245098 260876 253565 259471 265302 37668.8 286989 124657    0  11214    0 2000028
 11885.7  86722 152515  39407    0  0  0 142964 278085 148241    0 243112 258874 252854 257449 259762 62625.1 285839 120635    0  11215    0 2000028
 11886.1  86710 152635  39384    0  0  0 141937 274563 147266    0 241792 255352 250344 254773 256921 90332.7 281309 117981    0  11211    0 2000028
 11886.4  86720 152788  39385    0  0  0 143875 271623 145538    0 239757 253471 247269 252496 255111 59840.6 279228 120318    0  11213    0 2000028
 11886.8  86695 152875  39326    0  0  0 143457 270962 145204    0 239151 252756 247287 251724 256887 88779.9 277596 118643    0  11209    0 2000028
 11887.3  86680 152973  39382    0  0  0 141144 267866 143801    0 236484 251023 244391 250132 253214 49003.8 276407 117743    0  11203    0 2000028
 11887.7  86665 153013  39264    0  0  0 140626 268662 143759    0 236922 249886 246065 249931 253540 124239 275133 118149    0  11203    0 2000028
 11888.1  86643 153107  39284    0  0  0 139423 266293 142752    0 235299 248623 245447 248929 251635 119296 273604 116902    0  11200    0 2000028
 11888.5  86619 153118  39245    0  0  0 139093 266116 142792    0 234980 248524 244630 248538 249362 121636 272650 116266    0  11198    0 2000029
 11888.9  86600 153101  39194    0  0  0 140409 264837 141738    0 233988 247223 241358 245920 251767 110597 272076 117814    0  11199    0 2000028
 11889.3  86577 153116  39156    0  0  0 136218 263904 141738    0 232837 248025 241753 246210 248033 96013 272018 114398    0  11189    0 2000028
 11889.7  86564 153140  39097    0  0  0 136058 264255 141237    0 232937 246712 242208 245621 246646 98736.3 273975 113033    0  11194    0 2000028
 11890.1  86537 153117  39046    0  0  0 139920 264920 141887    0 232530 247285 242810 246647 249192 105477 271602 116453    0  11147    0 2000028
 11890.5  86510 153086  38976    0  0  0 139331 265093 142461    0 233227 247928 243425 247757 251729 91972 272317 117474    0  11189    0 2000028
 11890.9  86480 153073  38848    0  0  0 136781 263477 141788    0 232656 246201 241325 246797 247993 38096.6 271407 113185    0  11182    0 2000029
 11891.3  86442 153044  38747    0  0  0 137230 262619 140989    0 232071 245169 241721 245421 246446 73487 271626 114911    0  11183    0 2000028
 11891.7  86389 152996  38713    0  0  0 136972 261021 140506    0 230996 244745 239358 244133 246210 113783 268859 115302    0  11173    0 2000028
 11892.1  86315 152911  38643    0  0  0 136957 260956 140349    0 229508 244043 238919 243665 246028 55595.6 269413 113799    0  11163    0 2000028
 11892.5  86217 152801  38674    0  0  0 137006 259877 138917    0 229104 243171 238978 242971 245695 41289.5 267163 114815    0  11149    0 2000028
 11892.9  86091 152672  38742    0  0  0 136479 259781 139152    0 229595 243162 238583 242258 245867 117313 267594 114078    0  11133    0 2000028
 11893.3  85874 152395  38798    0  0  0 134730 255986 137890    0 224715 238682 234885 238915 242628 119612 262633 110454    0  11108    0 2000028
 11893.7  85533 151871  38977    0  0  0 134423 256491 137351    0 225565 238272 233730 237874 240267 99089 263603 112531    0  11067    0 2000028
 11894  84813 150644  39081    0  0  0 132117 251506 134346    0 221724 235209 230020 234581 239426 118538 258822 111495    0  10983    0 2000028
 11894.5  83713 148798  39055    0  0  0 129757 247553 132897    0 219248 230892 226883 232441 234636 116022 255282 107963    0  10853    0 2000029
 11894.9  83104 147828  39169    0  0  0 126732 241454 130326    0 214494 227749 223240 226707 228425 110996 251166 105462    0  10779    0 2000029
 11895.3  83165 148018  39204    0  0  0 127392 242679 129217    0 214213 226436 221691 226273 228130 100774 249211 106684    0  10787    0 2000029
 11895.6  83770 149196  39351    0  0  0 127545 243799 129705    0 215437 227906 223799 226991 232006 115844 250792 106498    0  10860    0 2000029
 11896.1  84868 151273  39390    0  0  0 126346 244260 130857    0 215579 229859 223874 229429 230965 113762 251247 106845    0  10991    0 2000027
 11896.4  85868 153142  39414    0  0  0 128677 245460 131662    0 216918 230240 225338 229157 233051 100482 253674 107753    0  11110    0 2000028
 11896.8  86508 154341  39470    0  0  0 129583 246571 132613    0 217975 230567 226913 231707 232772 74076.4 254828 107302    0  11189    0 2000028
 11897.3  86741 154830  39440    0  0  0 129976 249210 132756    0 219380 231941 228802 231330 234457 109765 255943 108475    0  11215    0 2000028
 11897.7  86780 154970  39406    0  0  0 130605 244905 131884    0 217532 230455 225314 228715 235254 99842.9 254117 109499    0  11220    0 2000029
 11898.1  86767 155042  39451    0  0  0 129193 244624 131143    0 216319 228978 224492 227996 232373 104749 252174 107798    0  11216    0 2000028
 11898.4  86747 155107  39473    0  0  0 126482 244685 130604    0 215493 227315 222394 227975 230144 50102.3 250063 106278    0  11214    0 2000028
 11898.9  86727 155128  39416    0  0  0 128182 242389 129955    0 214154 225950 222262 228031 230064 86181.2 249228 106429    0  11214    0 2000028
 11899.3  86709 155187  39471    0  0  0 127613 240609 128792    0 213411 225550 220964 224346 229580 48831.1 247012 107439    0  11211    0 2000028
 11899.7  86692 155259  39455    0  0  0 125977 240642 128341    0 212231 223252 219090 223437 228184 21476.8 247764 105379    0  11211    0 2000029
 11900.1  86674 155315  39394    0  0  0 125211 238737 127338    0 212187 223072 219748 223250 227331 21549.9 246540 104835    0  11207    0 2000028
 11900.5  86652 155387  39440    0  0  0 123981 237703 126401    0 210556 222086 217507 221334 223317 35601.8 242987 103711    0  11207    0 2000028
 11900.9  86642 155445  39377    0  0  0 125688 237329 126577    0 209643 221748 217577 220901 225975 83372.1 244030 104442    0  11203    0 2000029
 11901.2  86626 155529  39357    0  0  0 123466 234533 125661    0 206671 218354 213627 217788 221800 22976 240860 103436    0  11198    0 2000028
 11901.7  86619 155646  39444    0  0  0 121522 232763 124357    0 206578 218793 213567 218808 221440 28058.6 240733 102108    0  11201    0 2000029
 11902.1  86602 155729  39360    0  0  0 120797 231429 124553    0 204407 216350 211872 214436 217410 33928.2 237460 100272    0  11197    0 2000028
 11902.5  86594 155834  39387    0  0  0 120461 228714 122454    0 203216 213461 209246 214309 215442 47438.3 235642 99202.8    0  11193    0 2000028
 11902.9  86588 155948  39395    0  0  0 117822 226505 121199    0 199716 211453 207286 211574 213038 54696.6 233058 98501.4    0  11191    0 2000028
 11903.2  86572 156033  39327    0  0  0 119935 226704 120031    0 198846 210899 206211 211448 215571 29839.4 232409 99994.3    0  11190    0 2000029
 11903.6  86564 156143  39391    0  0  0 115813 224172 119353    0 197427 209057 204156 209982 211258 58979.3 230198 97616.4    0  11189    0 2000028
 11904  86551 156277  39367    0  0  0 115821 220982 118227    0 196052 207637 203312 207518 209417 55258.3 228567 96134.8    0  11190    0 2000028
 11904.3  86546 156357  39318    0  0  0 116897 220625 117262    0 194941 205443 200085 206103 210073 39134.1 227362 97685.4    0  11186    0 2000029
 11905.3  86531 156729  39381    0  0  0 112332 214525 114571    0 190782 200796 196082 200397 204961 66895.2 221033 94737.4    0  11178    0 2000028
 11906.4  86493 157096  39383    0  0  0 108827 208008 111640    0 184772 195081 189822 194644 196109 95260.6 214407 90067.9    0  11178    0 2000028
 11907.5  86432 157396  39346    0  0  0 106338 202649 107924    0 179093 188750 184381 188007 192497 85484.8 208277 88450.2    0  11169    0 2000027
 11908.6  86378 157647  39348    0  0  0 103615 197671 104949    0 174629 184129 178995 184080 186997 79991.7 201725 86751.8    0  11159    0 2000028
 11909.8  86421 158020  39398    0  0  0 100417 192452 102688    0 170255 180506 174815 180441 183823 87553.1 198541 83725.4    0  11162    0 2000028
 11910.9  86379 158126  39352    0  0  0 99800.5 190202 101128    0 168417 177844 172463 177241 181666 66202.5 195327 83092    0  11161    0 2000027
 11912.2  86398 158260  39379    0  0  0 98145.8 189745 100832    0 167492 177625 171389 177244 179324 79219.6 194096 81708.9    0  11164    0 2000029
 11913.3  86411 158324  39426    0  0  0 99366.3 189126 100438    0 167461 176061 171829 177052 179396 43447.5 194907 81414.9    0  11166    0 2000028
 11914.6  86373 158283  39355    0  0  0 99540.4 190538 101480    0 167797 177655 172220 178315 180951 78918.4 196305 82437.5    0  11162    0 2000028
 11915.7  86356 158172  39366    0  0  0 100866 192422 102207    0 169880 179684 173615 178872 182573 81568.1 196014 83886.2    0  11162    0 2000029
 11917.1  86338 158076  39312    0  0  0 100059 192344 102288    0 169848 179451 175396 179840 182110 85231.2 196429 82524.1    0  11160    0 2000028
 11918.3  86319 157921  39305    0  0  0 101058 195589 103799    0 172429 181687 176468 182241 184069 48414.3 200510 83590    0  11156    0 2000028
 11919.6  86309 157844  39333    0  0  0 103677 196742 104436    0 173763 183716 178637 184263 186929 71419.9 202596 86165.4    0  11155    0 2000028
 11920.9  86290 157682  39326    0  0  0 105200 199393 106178    0 176638 185853 180554 187095 190181 56307.3 204805 87363    0  11151    0 2000028
 11922.3  86272 157544  39300    0  0  0 104259 202821 107047    0 178793 189462 183474 190081 189971 55072.8 208640 86261.4    0  11150    0 2000027
 11923.5  86253 157406  39308    0  0  0 107597 203915 109057    0 179788 189431 184597 190289 192677 47185.4 208534 88305.1    0  11144    0 2000029
 11925  86224 157205  39301    0  0  0 108901 206528 110480    0 184031 193641 187602 194409 197376 39058.1 213241 90830    0  11141    0 2000028
 11926.3  86198 157041  39272    0  0  0 111116 210214 112198    0 186489 196686 191073 196205 200587 37068.5 215782 91768.8    0  11135    0 2000029
 11927.8  86172 156848  39298    0  0  0 112617 212278 113504    0 187837 198060 193933 198843 202845 16115.7 217667 93201.2    0  11132    0 2000029
 11929.2  86153 156669  39259    0  0  0 113182 215462 114983    0 190496 201576 196163 200939 205115 24803.4 222737 93907.9    0  11129    0 2000028
 11930.6  86143 156514  39222    0  0  0 113244 218547 116927    0 192598 203999 199621 204271 206860 13408.1 224349 94710.6    0  11133    0 2000028
 11932.1  86115 156296  39276    0  0  0 116771 220900 118298    0 195454 206949 201670 206784 210602 20225.8 227473 97288.9    0  11127    0 2000027
 11933.5  86081 156082  39199    0  0  0 118121 223807 120105    0 198498 209843 204643 210146 213756 19060.7 231794 99065.5    0  11126    0 2000028
 11935  86022 155825  39254    0  0  0 117824 226936 122062    0 202469 212496 207519 213109 213828 25775 235676 97575    0  11123    0 2000028
 11936.5  85827 155327  39250    0  0  0 120372 230403 123666    0 204083 215431 210765 215572 218088 30850.7 237541 100270    0  11101    0 2000028
 11938.1  86066 155607  39187    0  0  0 125406 234570 126255    0 208316 220495 215755 220369 225047 33396.9 240848 104234    0  11129    0 2000028
 11939.7  86049 155426  39245    0  0  0 124451 238738 126592    0 209466 223476 217537 221407 225870 71598.9 244926 104646    0  11120    0 2000028
 11941.2  86043 155339  39305    0  0  0 124687 239988 128625    0 212828 224321 219786 224836 226095 40857.2 248193 103976    0  11121    0 2000028
 11942.8  86016 155288  39266    0  0  0 127772 242948 129582    0 214697 226709 221797 227029 228547 61942.8 248806 106149    0  11118    0 2000028
 11944.4  86001 155212  39247    0  0  0 130117 243576 130275    0 216792 228174 222880 227992 231245 100167 252468 107832    0  11113    0 2000028
 11946  85989 155174  39261    0  0  0 128300 244955 130592    0 216301 228333 222660 229378 232133 22207.8 251822 108084    0  11105    0 2000028
 11947.6  85965 155119  39213    0  0  0 127438 245786 131729    0 216297 229020 225581 229688 230904 37371.3 252080 106832    0  11099    0 2000028
 11949.3  85946 155120  39251    0  0  0 130348 247409 132336    0 216913 231186 225688 230246 234429 22046.5 253568 108188    0  11095    0 2000028
 11951  85935 155195  39358    0  0  0 130251 246743 132003    0 217389 231213 224540 229990 234537 23514.5 252229 108388    0  11094    0 2000028
 11952.7  85910 155254  39259    0  0  0 130807 246146 131392    0 216709 229856 225560 229459 234145 22471.2 252852 109420    0  11094    0 2000029
 11954.4  85892 156975  39271    0  0  0 127229 242062 129779    0 214894 225104 221889 226395 228967 45396.8 247797 106876    0  11091    0 2000028
 11956.1  85866 157268  39268    0  0  0 125875 239647 128700    0 213353 224891 220480 225343 228797 23517.6 247214 106401    0  11083    0 2000028
 11957.9  85844 157299  39177    0  0  0 125683 239076 127997    0 211589 224404 219751 223513 227193 33816.8 246700 105766    0  11081    0 2000028
 11959.8  85832 157396  39243    0  0  0 126920 240109 127910    0 210921 223636 218255 222318 226699 30628.7 245628 106561    0  11082    0 2000029
 11961.5  85810 157459  39260    0  0  0 123964 239696 127186    0 212358 223779 219827 223033 226104 48482.4 246994 105488    0  11079    0 2000028
 11963.3  85787 157469  39191    0  0  0 125655 238028 127527    0 210732 222047 218393 221881 227369 110647 244123 104404    0  11076    0 2000028
 11965.2  85773 157583  39211    0  0  0 123775 237949 127216    0 210611 221354 218422 222931 223966 61846.3 245238 103247    0  11075    0 2000028
 11967.1  85750 157599  39256    0  0  0 126920 239118 128188    0 211560 223677 219124 222838 227116 89599.7 246002 106103    0  11070    0 2000028
 11969  85725 157639  39195    0  0  0 126981 238639 127835    0 210498 222856 219000 222353 226922 40278 244953 105896    0  11071    0 2000029
 11970.9  85701 157657  39204    0  0  0 123506 237163 127194    0 210277 221722 218370 221817 223685 41000.8 244695 104137    0  11066    0 2000028
 11972.8  85672 157758  39218    0  0  0 122351 237183 127602    0 209409 221406 218866 220738 221793 50269.7 244743 102046    0  11065    0 2000028
 11974.8  85644 157814  39109    0  0  0 125541 237654 126605    0 210755 221912 217870 221508 225038 30621.9 244045 105750    0  11062    0 2000028
 11976.8  85610 157877  39001    0  0  0 123832 236188 126097    0 208442 221298 217338 220703 223806 31252.1 243360 104368    0  11062    0 2000028
 11978.8  85504 157789  38885    0  0  0 121610 234472 124895    0 208354 218880 215252 220865 220968 28539.4 240269 101643    0  11046    0 2000029
 11980.9  84337 155831  38948    0  0  0 119780 231004 123226    0 203824 216681 210783 215480 216049 95736.4 237325 100219    0  10905    0 2000028
 11982.9  85225 157631  39024    0  0  0 123309 234099 124570    0 206832 217543 213850 218559 221744 79194.5 240741 102743    0  11006    0 2000028
 11984.9  84906 157247  39141    0  0  0 121090 229874 122581    0 202682 214226 208772 213289 217147 92099 234729 101462    0  10970    0 2000028
 11987.1  85218 157994  39171    0  0  0 119850 229059 121972    0 201510 213720 208887 213467 216586 18069.4 235684 99614.4    0  11005    0 2000028
 11989.2  85410 158592  39240    0  0  0 118398 226364 121589    0 200763 211776 206401 211152 213668 12764.3 232925 99066    0  11024    0 2000029
 11991.3  85407 158774  39179    0  0  0 118494 225401 120539    0 198235 210333 206514 210521 213479 26709.1 231808 99270.3    0  11025    0 2000028
 11993.4  85388 158882  39118    0  0  0 117207 223394 119576    0 198691 209882 205641 208729 213148 60468.8 230809 98076.4    0  11018    0 2000028
 11995.6  85364 158998  39137    0  0  0 116506 221967 118836    0 195544 207156 201529 207956 211468 40713.8 227945 97962.1    0  11017    0 2000028
 11997.8  85332 159136  39123    0  0  0 116147 221675 118079    0 196329 207582 203553 207468 211160 91267.1 229021 97655.4    0  11014    0 2000029
 12000  85309 159204  39137    0  0  0 114510 222555 117738    0 195894 207318 202780 206708 208859 89066.4 228073 95594.2    0  11013    0 2000027
 12002.3  85292 159266  39113    0  0  0 116467 220138 117092    0 194685 205662 200855 206531 208656 77500 225415 96722    0  11007    0 2000028
 12004.4  85270 159301  39191    0  0  0 116559 219729 116843    0 194936 206496 201558 205329 210410 88356.5 226006 98003.3    0  11006    0 2000028
 12006.7  85238 159345  39137    0  0  0 114151 220842 117595    0 195613 207429 201597 207002 209864 79567.2 227971 95124.7    0  11001    0 2000028
 12008.9  85207 159326  39138    0  0  0 114494 222079 118344    0 194695 207272 200909 207042 208656 93522 226917 94741.4    0  10952    0 2000028
 12011.2  85183 159351  39124    0  0  0 116879 221766 118277    0 196479 207318 202475 206860 210235 93286 228263 96657.4    0  10988    0 2000029
 12013.4  85147 159289  39156    0  0  0 116297 221642 118577    0 197295 209164 202576 207538 211257 35091.9 228178 97777.2    0  10987    0 2000028
 12015.8  85123 159317  39156    0  0  0 115388 222656 118784    0 195883 207804 203472 207901 209879 73321.3 227852 95543.3    0  10981    0 2000028
 12018.1  85097 159305  39128    0  0  0 115110 224276 119446    0 197296 208888 205540 208582 208956 94415.4 230642 97029.8    0  10981    0 2000028
 12020.5  85068 159268  39072    0  0  0 119303 225562 120038    0 199205 210296 205611 209635 215099 78238.6 230448 98852.6    0  10978    0 2000029
 12022.8  84942 159054  39123    0  0  0 118074 225272 120399    0 199816 210675 206753 210365 213953 101724 232507 99114.4    0  10961    0 2000029
 12025.2  84920 159065  39109    0  0  0 118265 226222 120763    0 200802 212532 208648 212069 215166 102844 233583 98787.2    0  10962    0 2000028
 12027.6  84991 159216  39119    0  0  0 120576 227975 121889    0 202107 212991 208489 212868 216793 103908 234695 99958.7    0  10966    0 2000028
 12030.1  84895 159091  39109    0  0  0 120766 228556 122471    0 201903 213644 208892 213182 216868 102493 236390 100499    0  10954    0 2000029
 12032.5  84936 159183  39048    0  0  0 119772 229638 122802    0 202921 214638 210466 214578 218461 96008.2 237648 100879    0  10957    0 2000029
 12034.9  84901 159127  38994    0  0  0 121559 230951 123261    0 204503 216914 211490 215706 220085 81141.2 239023 101903    0  10951    0 2000028
 12037.4  84760 158922  39059    0  0  0 119895 230923 123689    0 204287 216838 210717 215530 219291 107967 236930 101785    0  10936    0 2000028
 12039.9  84716 158901  39079    0  0  0 120755 233006 124110    0 204546 217304 212222 216707 218245 90714.6 238241 100085    0  10928    0 2000028
 12042.4  84776 159043  39074    0  0  0 123276 233897 125461    0 206679 218645 214880 217694 220329 30076.5 239882 101978    0  10932    0 2000028
 12044.9  84827 159218  39026    0  0  0 123862 235588 126532    0 207246 219006 214125 218295 222025 18419.4 240798 104282    0  10940    0 2000028
 12047.4  84612 158863  39058    0  0  0 122978 235006 125283    0 206760 219368 213867 216813 222507 21966.8 240985 102813    0  10913    0 2000029
 12050  84737 159212  39026    0  0  0 121999 235304 125668    0 208027 220375 216459 219845 221370 44963.1 242033 101730    0  10925    0 2000029
 12052.5  84724 159256  39022    0  0  0 125079 236384 127280    0 209674 222294 217401 221116 224138 95347.4 243849 104067    0  10929    0 2000028
 12055.1  84692 159320  39033    0  0  0 124878 235864 125960    0 208595 219651 215159 220310 224478 91772.3 243202 104925    0  10923    0 2000028
 12057.7  84667 159392  38986    0  0  0 122350 235653 126640    0 208440 221350 217005 220266 223140 89649.5 242747 103480    0  10920    0 2000028
 12060.3  84639 159423  38995    0  0  0 122631 236723 126490    0 209253 221534 216284 220970 222892 106155 242998 103163    0  10911    0 2000029
 12062.9  84624 159470  39015    0  0  0 124897 237080 126832    0 209157 220842 216038 220504 223720 96697.8 243851 104163    0  10902    0 2000029
 12065.6  84566 159484  38934    0  0  0 124279 236574 126691    0 210329 221571 217355 220425 225053 15007.2 242769 104689    0  10902    0 2000028
 12068.2  84537 159519  38879    0  0  0 124348 237398 126504    0 209457 223319 217150 221643 226399 29375.9 243948 105631    0  10896    0 2000029
 12070.9  84513 159612  38875    0  0  0 123634 236176 126863    0 209613 221274 216505 221500 223938 72869.5 242726 103700    0  10891    0 2000029
 12073.6  84478 159619  38817    0  0  0 123781 236773 126159    0 208020 220886 217118 221186 222698 75677 242240 102721    0  10885    0 2000028
 12076.3  84457 159657  38810    0  0  0 124593 236252 126783    0 210139 222021 217368 221086 224370 41014.9 242893 104324    0  10882    0 2000029
 12079  84423 159707  38825    0  0  0 124913 237433 127039    0 209893 223621 218071 222084 226472 108173 243899 104595    0  10875    0 2000028
 12081.7  84397 159788  38801    0  0  0 123244 238138 126893    0 210772 223123 217663 221473 223503 110916 243832 103872    0  10871    0 2000029
 12084.5  84358 159800  38774    0  0  0 124440 237357 126799    0 208223 220353 215899 220648 224164 108406 243105 103427    0  10864    0 2000028
 12087.4  84322 159838  38747    0  0  0 123521 236983 125986    0 210009 221760 217222 222374 222764 104019 244303 102994    0  10862    0 2000028
 12090.3  84280 159921  38702    0  0  0 124765 236382 126756    0 208579 220630 216150 219537 223894 39760.8 242916 104211    0  10852    0 2000028
 12093.1  84224 159971  38770    0  0  0 123928 235798 125458    0 207968 220927 216367 220591 223660 107520 242956 103905    0  10844    0 2000028
 12096  84219 160044  38702    0  0  0 123392 236304 126463    0 208654 219793 216104 220009 222205 50607.5 242779 103009    0  10841    0 2000029
 12098.9  84187 160110  38649    0  0  0 123035 236258 126213    0 207607 219769 216104 219531 222593 102780 241976 102581    0  10836    0 2000028
 12101.8  84171 160262  38723    0  0  0 125389 235838 126649    0 208531 219837 217061 219362 224544 94725.6 242920 104483    0  10828    0 2000029
 12104.7  84139 160303  38704    0  0  0 123433 236026 125618    0 208090 219090 215751 218665 222250 99985.5 241079 103304    0  10825    0 2000028
 12107.7  84097 160378  38701    0  0  0 123641 235553 125434    0 208206 220404 216235 220545 223094 102207 243491 102908    0  10821    0 2000028
 12110.7  84062 160459  38685    0  0  0 122356 235195 125932    0 208383 219566 214105 219718 220685 108321 241895 102758    0  10813    0 2000029
 12113.7  83945 160347  38707    0  0  0 124151 233845 124276    0 207797 218829 214289 218279 222980 89554.7 241055 104480    0  10792    0 2000028
 12116.6  84018 160642  38675    0  0  0 123596 235386 125766    0 208075 219509 216380 219212 223992 64487.6 243094 104510    0  10803    0 2000028
 12119.7  83984 160726  38633    0  0  0 122249 233766 124764    0 207657 219940 214483 219050 221545 41877.8 240656 101967    0  10799    0 2000028
 12122.8  83927 160741  38660    0  0  0 122181 232463 125330    0 205959 218706 213141 218040 220369 24781.7 240190 101162    0  10791    0 2000028
 12125.9  83885 160771  38604    0  0  0 124107 232581 124924    0 205560 217765 213189 217296 222482 42318.1 239077 104298    0  10786    0 2000028
 12129  83832 160773  38494    0  0  0 122454 233298 125294    0 206660 218605 214296 218965 221597 21837.5 241015 103350    0  10776    0 2000028
 12132.1  83713 160671  38048    0  0  0 121053 233029 125184    0 206040 217740 212810 216757 220030 30205 240032 100632    0  10765    0 2000028
 12135.2  81783 157089  38446    0  0  0 117443 227176 121602    0 200371 212437 207730 212330 213458 34533.7 233350 99190.8    0  10538    0 2000028
 12138.5  83811 161114  38622    0  0  0 123007 233746 124883    0 206395 219176 214832 218171 224598 48114.7 241970 104658    0  10782    0 2000028
 12141.7  83727 161101  38442    0  0  0 121699 234096 124673    0 204910 218298 213413 218096 221270 99891.2 239278 102087    0  10774    0 2000028
 12144.8  83489 160741  38446    0  0  0 122703 234965 125295    0 207676 219046 214540 218550 221282 47253 239703 101484    0  10738    0 2000028
 12148.1  83592 161035  38492    0  0  0 123573 234649 125718    0 207908 218792 216064 219406 221597 26924.2 241430 103590    0  10749    0 2000028
 12151.3  83589 161157  38444    0  0  0 123645 235204 125253    0 206323 219021 213356 218379 221896 24270.2 239489 103610    0  10749    0 2000029
 12154.6  83559 161217  38432    0  0  0 122412 234687 125356    0 207572 218906 214467 220183 222038 71861.7 241790 102285    0  10751    0 2000029
 12157.9  83529 161280  38375    0  0  0 124597 235598 126496    0 208010 219624 215000 219530 223223 21496.9 242002 103387    0  10748    0 2000029
 12161.2  83481 161304  38368    0  0  0 122460 236828 126391    0 208438 221850 216180 221223 223970 23182.3 245256 104164    0  10739    0 2000028
 12164.6  83442 161361  38340    0  0  0 123516 236603 126651    0 208626 221730 217384 220418 224300 61626.2 243511 103502    0  10734    0 2000028
 12168  83361 161294  38299    0  0  0 123119 236512 126716    0 207901 220190 215579 218711 222359 35148.8 242587 102287    0  10723    0 2000029
 12171.3  83341 161394  38312    0  0  0 124570 239644 128019    0 210471 222112 217338 221438 225691 43604.9 243519 104577    0  10720    0 2000028
 12174.8  83309 161439  38271    0  0  0 122764 236286 125889    0 209480 220885 216813 219929 224118 65421.1 243932 103920    0  10713    0 2000028
 12178.2  83178 161325  38258    0  0  0 122937 237537 126909    0 208931 221015 216206 221671 222575 95472.3 244113 102004    0  10696    0 2000029
 12181.6  83246 161598  38278    0  0  0 124262 236254 125974    0 209701 220998 216189 220843 222825 27167.4 242224 103696    0  10705    0 2000029
 12185.1  83214 161658  38261    0  0  0 125892 237900 126816    0 211488 220871 216821 220485 227788 67302.5 245236 106485    0  10700    0 2000028
 12188.6  83172 161695  38229    0  0  0 121400 236696 126276    0 209097 221259 216959 221384 222090 32575.9 243812 102146    0  10688    0 2000029
 12192  83141 161748  38271    0  0  0 122100 237306 127437    0 209105 222738 218630 222158 221333 82635.6 244478 102416    0  10679    0 2000028
 12195.6  83129 161856  38273    0  0  0 125026 238082 127321    0 211657 223897 217831 223118 225828 19218.2 244464 105350    0  10681    0 2000028
 12199.1  82841 161448  38258    0  0  0 125508 236810 126954    0 209404 223130 217164 222283 226596 67850.1 243708 105359    0  10644    0 2000028
 12202.6  83058 161999  38237    0  0  0 124866 238350 128081    0 211147 222920 217905 222259 225016 43422.9 244464 103621    0  10673    0 2000028
 12206.2  83008 162047  38207    0  0  0 124220 237424 128174    0 211547 222546 220715 222621 226111 97017.8 246779 104132    0  10670    0 2000028
 12209.7  82963 162084  38233    0  0  0 126190 238292 127676    0 211432 222841 219239 222606 227016 87746.2 245594 105274    0  10661    0 2000028
 12213.3  82932 162151  38207    0  0  0 127995 239639 128135    0 211241 223370 219333 223330 228441 108940 246124 107131    0  10653    0 2000029
 12217  82889 162217  38184    0  0  0 124834 241048 128466    0 211715 222908 219780 223662 226686 107190 246696 104797    0  10651    0 2000028
 12220.6  82800 162181  38073    0  0  0 124297 238420 127925    0 210445 223045 218095 222462 224900 22925 245721 104960    0  10637    0 2000028
 12224.2  82755 162215  38062    0  0  0 126632 239117 127157    0 211616 222589 218152 222483 227083 51851.1 246473 105673    0  10630    0 2000028
 12227.8  82716 162253  37980    0  0  0 126964 240075 128458    0 212145 223191 220319 223275 226523 67457.6 247124 106041    0  10623    0 2000028
 12231.5  82640 162278  37911    0  0  0 125631 239985 127906    0 211890 223978 218853 223102 225662 30601.6 246354 105357    0  10613    0 2000028
 12235.2  82476 162117  37969    0  0  0 125705 238941 128120    0 210872 224725 218975 223076 226446 87348.6 245526 104685    0  10592    0 2000029
 12238.9  82501 162321  37784    0  0  0 125926 238708 127497    0 210518 222797 218309 221622 225281 69259.1 245889 105097    0  10596    0 2000029
 12242.8  82297 162047  37758    0  0  0 127486 239315 127894    0 210010 222767 218479 222709 228036 87539.2 245783 107121    0  10567    0 2000028
 12246.5  82255 162122  37682    0  0  0 124443 237697 127378    0 210231 221238 216808 222552 225464 57738.9 244528 104275    0  10558    0 2000029
 12250.4  81941 161571  36862    0  0  0 123246 237910 127082    0 212062 222914 217730 222678 225023 33774.3 246219 104788    0  10522    0 2000029
 12254.1  79779 157337  36297    0  0  0 121388 231615 124387    0 204645 217092 210369 216300 219188 57121.3 238162 101119    0  10266    0 2000028
 12258  81244 160458  37790    0  0  0 124375 236943 126793    0 209499 221429 216067 220568 224321 25448.2 243365 104503    0  10437    0 2000029
 12261.8  82612 163445  37916    0  0  0 126455 239966 128372    0 211711 224451 219947 223687 227034 29106.2 246488 106824    0  10597    0 2000028
 12265.7  82553 163543  37863    0  0  0 126142 239495 128560    0 212194 224271 218346 223465 228312 33949.6 247045 105449    0  10590    0 2000028
 12269.6  82513 163610  37963    0  0  0 125337 239751 128318    0 212108 224181 218866 223272 226731 30757.2 245834 105061    0  10583    0 2000029
 12273.6  82442 163633  37936    0  0  0 127037 239643 128105    0 211683 224083 219788 223537 226763 26425.1 245747 105328    0  10575    0 2000028
 12277.5  82379 163701  37837    0  0  0 126084 239163 128324    0 212803 223652 218527 223097 226387 22994.7 245754 105668    0  10563    0 2000029
 12281.6  82307 163685  37781    0  0  0 125757 240442 128007    0 211776 222953 219334 222519 226390 49434.2 245283 104729    0  10551    0 2000028
 12285.6  81725 162648  37841    0  0  0 123521 236760 126610    0 209760 221863 217027 222223 224566 12248.8 243674 103066    0  10494    0 2000029
 12289.6  82242 163873  37807    0  0  0 124546 239996 128007    0 211370 223205 218991 223918 223804 17107.8 245277 103938    0  10553    0 2000029
 12293.6  82203 164150  37838    0  0  0 126667 237591 127056    0 210468 221409 217299 221820 225983 17796.1 243617 105559    0  10548    0 2000028
 12297.7  82157 164213  37866    0  0  0 124600 239304 128715    0 210286 223143 218384 222457 225230 21534.5 245254 104393    0  10537    0 2000028
 12301.7  82047 164146  37702    0  0  0 123264 238040 128040    0 209421 222530 218382 222371 223082 80777.9 244945 102221    0  10526    0 2000029
 12305.9  81978 164181  37655    0  0  0 124542 238145 127080    0 209025 221654 216399 221140 223802 29449.5 242834 103234    0  10512    0 2000028
 12309.9  81949 164267  37683    0  0  0 126656 239025 127690    0 211570 224072 219787 223206 227804 23550.6 246599 106788    0  10510    0 2000028
 12314  81886 164313  37620    0  0  0 124149 238329 127680    0 210760 223025 218787 221624 225401 29563.9 245045 103959    0  10500    0 2000028
 12318.1  81839 164385  37621    0  0  0 124424 238827 128840    0 211216 223932 219914 223771 223915 30320.2 245858 103048    0  10493    0 2000028
 12322.3  81751 164342  37515    0  0  0 123009 239669 127717    0 211048 224065 218150 221987 224347 68166.9 245166 103624    0  10480    0 2000028
 12326.5  81700 164404  37535    0  0  0 126729 239358 127711    0 211589 223032 218856 224088 230733 91443 245657 107734    0  10470    0 2000028
 12330.6  81657 164484  37435    0  0  0 124244 239569 128060    0 210900 222335 219306 222859 224744 88543.1 245705 104065    0  10463    0 2000028
 12334.9  81613 164553  37487    0  0  0 122362 239734 127387    0 210125 222884 218172 221847 222550 15640.7 245563 101989    0  10461    0 2000028
 12339.1  81560 164590  37481    0  0  0 125823 239668 128202    0 212339 224011 219527 223461 225693 17107.2 245622 104630    0  10456    0 2000029
 12343.3  81521 164681  37459    0  0  0 127359 239396 128583    0 212077 224520 219632 224125 226993 18581.6 245843 106827    0  10449    0 2000028
 12347.6  81464 164730  37455    0  0  0 124649 240666 127745    0 212364 224538 219421 224252 226121 14399.5 245765 103984    0  10394    0 2000028
 12351.8  81457 164895  37556    0  0  0 125707 240317 128455    0 211214 223812 218126 222948 226051 16362.7 245535 103578    0  10397    0 2000029
 12356.2  81418 164974  37529    0  0  0 124449 240274 128576    0 212586 225033 219056 224959 225783 14524.9 246509 104790    0  10392    0 2000028
 12360.4  81361 164988  37517    0  0  0 127304 240222 128884    0 212675 224410 219990 223562 228179 21570 249476 106252    0  10382    0 2000029
 12364.7  81308 165075  37503    0  0  0 124992 240366 128383    0 211537 223788 219728 223282 225850 10149.4 246441 104316    0  10375    0 2000028
 12369.1  81256 165118  37469    0  0  0 125190 240633 129279    0 211267 223807 219680 223356 227525 19319.1 246581 104986    0  10371    0 2000029
 12373.3  81211 165179  37449    0  0  0 126394 240171 129515    0 213081 224905 220627 225084 228860 29361.7 247976 105414    0  10362    0 2000028
 12377.7  81146 165216  37371    0  0  0 126197 241289 129592    0 213876 225675 220086 225246 226842 25223 247916 105707    0  10390    0 2000028
 12382.1  80906 164905  37350    0  0  0 125890 239716 129351    0 211123 222515 219763 223689 227832 14934.6 246491 106064    0  10357    0 2000028
 12386.4  81007 165270  37307    0  0  0 127357 241434 129115    0 214268 225115 220223 224683 228695 24112.2 249482 107213    0  10362    0 2000028
 12390.9  80946 165297  37286    0  0  0 123036 240985 128801    0 211903 224121 220624 223427 223765 25905.4 245179 103279    0  10352    0 2000028
 12395.4  80862 165316  37185    0  0  0 125596 240421 128679    0 212013 224133 219323 223717 226689 29188.3 246071 104644    0  10343    0 2000028
 12399.8  80700 165144  37157    0  0  0 125727 240499 129188    0 213487 224135 220105 224559 227171 20296.8 246990 106692    0  10326    0 2000029
 12404.4  80688 165279  37088    0  0  0 126820 241045 128463    0 213147 225864 220681 224963 228250 27504.9 249018 105641    0  10325    0 2000028
 12408.9  80509 165075  37046    0  0  0 125394 240896 128646    0 211985 225441 220819 223711 226805 38085.9 247348 104189    0  10305    0 2000029
 12413.4  80622 165501  37066    0  0  0 124698 239198 128358    0 211638 223632 218586 224294 225888 14465.6 246919 105040    0  10315    0 2000029
 12417.9  80593 165638  37091    0  0  0 127503 240677 129394    0 213745 225477 221386 226256 229746 32761.2 248137 107034    0  10308    0 2000029
 12422.6  80556 165736  37018    0  0  0 127064 241302 129654    0 212740 224299 221235 225022 230051 26093.7 247544 107182    0  10305    0 2000028