File: example/Fe/As_200e_38_02.xdi
# XDI/1.0 GSE/1.0
# Scan-start_time: 2024-10-06T10:50:55
# Column.1: energy eV
# Column.2: I0_eh2
# Column.3: I1_eh2
# Column.4: IX_eh2
# Column.5: IR_eh2
# Column.6: c8
# Column.7: c9
# Column.8: fluo01
# Column.9: fluo02
# Column.10: fluo03
# Column.11: fluo04
# Column.12: fluo05
# Column.13: fluo06
# Column.14: fluo07
# Column.15: fluo08
# Column.16: fluo09
# Column.17: fluo10
# Column.18: fluo11
# Column.19: fluo12
# Column.20: fluo13
# Column.21: I0_eh1
# Column.22: I1_eh1
# Column.23: IX_eh1
# Mono.name: Si 111
# Mono.d_spacing: 3.134692
# Mono.notes: LNT cooled
# Beamline.name: BM08-LISA
# Facility.name: ESRF
# Facility.xray_source: Bending magnet
# ---------
# BraggEnergy I0_eh2 I1_eh2 IX_eh2 IR_eh2 c8 c9    fluo01   fluo02    fluo03 fluo04   fluo05   fluo06   fluo07   fluo08   fluo09    fluo10   fluo11   fluo12 fluo13 I0_eh1 I1_eh1 IX_eh1
 11725.8  86318 166512  38304    0  0  0  835.406  1585.72  932.674    0  1305.25  1344.21  1598.73  1361.11  1556.86  1236.67  1666.16  1140.68    0  11208    0 2000027
 11735.5  86257 166868  38372    0  0  0  860.809  1607.57  963.586    0  1400.05  1309.9  1743.26  1408.79  1485.42  1264.58  1699.5  1040    0  11197    0 2000029
 11745.3  86183 167210  38390    0  0  0  891.453  1637.17  995.156    0  1400.82  1392.93  1663.48  1343.87  1512.87  3208.45  1722.54  1098.32    0  11187    0 2000028
 11755.2  86087 167470  38365    0  0  0  860.751  1640.82  895.471    0  1391.28  1371  1695.59  1427.79  1569.56  2868.96  1726.16  1070.6    0  11174    0 2000029
 11765.1  85994 167804  38355    0  0  0  860.516  1629.92  947.132    0  1402.01  1405.72  1774.57  1471.18  1638.57  2630.24  1748.77  1083.15    0  11159    0 2000029
 11775.1  85900 168073  38300    0  0  0  869.964  1705.4  927.207    0  1501.67  1522.77  1698.72  1532.8  1633.67  3409.87  1796.09  1109.71    0  11145    0 2000028
 11785  85793 168323  38332    0  0  0  965.843  1765.31  935.036    0  1470.37  1536.5  1795.03  1594.3  1600.07  1863.75  1872.24  1150.15    0  11126    0 2000028
 11794.9  85700 168629  38324    0  0  0  1015.53  1856.84  1070.68    0  1554.37  1580.42  1999.59  1685.59  1830.3  3055.35  1949.11  1133.5    0  11110    0 2000028
 11804.9  85615 168933  38314    0  0  0  1092.43  1976.26  1040.33    0  1600.12  1662.47  2013.32  1663.03  1922.21  3463.89  2110.06  1199.51    0  11096    0 2000028
 11814.8  85114 168444  38261    0  0  0  1093.8  2225.61  1170.17    0  1873.66  1930.84  2236.56  1893.31  1998.97  1978.33  2320.31  1269.33    0  11031    0 2000028
 11824.8  85433 169511  38361    0  0  0  1322.02  2507.18  1265.94    0  1941.98  2135.88  2369.79  2165.24  2373.68  3335.22  2540.56  1327.93    0  11066    0 2000029
 11834.7  85332 169774  38272    0  0  0  1515.99  2881.37  1452.98    0  2444.29  2406.15  2711.78  2547.36  2722.79  1980.55  2912.43  1542.69    0  11047    0 2000028
 11844.6  85226 169990  38228    0  0  0  1920.34  3689  1945.25    0  3171.7  3354.31  3479.85  3348.05  3573.23  1637.59  3778.91  1875.18    0  11031    0 2000028
 11854.5  85110 170126  38226    0  0  0  2902.28  5523.18  2812.34    0  4547.22  5038.65  5128.69  4869.71  5297.22  3067.74  5868.73  2620.81    0  11011    0 2000028
 11859.5  84933 169857  38173    0  0  0  3991.63  7538.3  3933.66    0  6636.01  6907.44  7072.66  7035.36  7300.1  3393.11  7988.46  3527.37    0  10997    0 2000028
 11859.9  84864 169710  38150    0  0  0  4108.05  7795.4  4045.36    0  6595.42  7008.29  7301.77  7267.83  7525.84  3419.12  8094.96  3589.1    0  10988    0 2000028
 11860.3  84803 169588  38196    0  0  0  4188.33  8198.71  4031.59    0  6898.73  7362.26  7509.3  7404.68  8087.12  3912.6  8460.39  3700.09    0  10980    0 2000028
 11860.8  84756 169477  38193    0  0  0  4346.26  8313.77  4407.56    0  7014.03  7604.41  7787.07  7714.39  8133.9  1135.23  8807.96  3826.8    0  10970    0 2000028
 11861.1  84745 169456  38174    0  0  0  4569.86  8682.79  4417.07    0  7289.6  7909.33  8173.07  7978.36  8369.78  2603.68  9080.51  3966.14    0  10969    0 2000027
 11861.5  84803 169552  38238    0  0  0  4732.72  9058.77  4654.02    0  7791.83  8177.38  8382.64  8440.65  8914.83  1519.83  9611.14  4146.22    0  10976    0 2000028
 11861.9  84889 169703  38160    0  0  0  4967.56  9251.96  4774.27    0  8013.57  8397.74  8578.68  8696.87  9037.81  3527.09  9825.41  4259.09    0  10985    0 2000028
 11862.3  84943 169798  38217    0  0  0  5130.07  9610.01  5085.18    0  8408.72  9040.12  8989.38  8900.67  9267.5  3965.91 10192.1  4256.05    0  10990    0 2000029
 11862.7  84958 169817  38238    0  0  0  5328.13 10054.3  5300.96    0  8768.6  9207.95  9490.08  9374.25  9798.13  2973.36 10636  4439.51    0  10996    0 2000028
 11863.1  84964 169801  38167    0  0  0  5423.95 10512.5  5501.16    0  9056.97  9562.5  9792.96  9890.3 10054.8  4161.22 11272.9  4679.22    0  10995    0 2000027
 11863.5  84963 169787  38246    0  0  0  5942.24 11083.1  5790.62    0  9648.74 10222.5 10278.8 10333.5 10802.6  4784.84 11954.7  4987.04    0  10998    0 2000029
 11863.9  84960 169766  38188    0  0  0  6035.01 11540.9  5940.91    0  9915.76 10688.8 10879 10788.7 11517.3  4207.45 12250  5108.25    0  10995    0 2000028
 11864.2  84959 169734  38176    0  0  0  6496.64 12343.8  6417.98    0 10694.8 11293.1 11633.9 11604.8 11730.5  4517.58 13062.1  5400.44    0  10996    0 2000028
 11864.6  84958 169675  38290    0  0  0  6528.59 12715.1  6561.36    0 10998.3 11787.8 11774.7 11960.9 12166.3  4890.39 13648.4  5688.68    0  10994    0 2000028
 11865  84946 169640  38197    0  0  0  7321.52 13561.7  6999.65    0 11786.6 12612.2 12615.5 13005.1 13475.3  5962.42 14599.6  5956.07    0  10993    0 2000028
 11865.5  84949 169589  38191    0  0  0  7640.95 14419.4  7366.94    0 12459.1 13395.6 13467 13693.8 14221  4329.11 15206.3  6505.53    0  10994    0 2000027
 11865.9  84943 169535  38248    0  0  0  8209.79 15140.5  7871.57    0 13420.8 13920 14111.1 14424.9 15218.3  674.68 16248.2  6749.66    0  10997    0 2000028
 11866.2  84934 169417  38199    0  0  0  8606.17 16556.8  8458.75    0 14144.7 14989.6 15002.9 15328.2 15836.6  2409.8 17422.2  6996.45    0  11004    0 2000029
 11866.6  84920 169363  38214    0  0  0  9207.03 17595.4  9195.84    0 15271.4 15900.9 16287.7 16226.9 16863.1  2542.67 18645.4  7485.23    0  11023    0 2000028
 11866.9  84901 169262  38265    0  0  0  9662.21 18792.1  9758.82    0 16416.6 17192.9 17457.7 17356.4 18117.7  2358.51 19829.2  8060.1    0  11021    0 2000028
 11867.3  84896 169124  38157    0  0  0 10801.4 20146.4 10502    0 17798.5 19043.5 18553.7 19180.2 19567.5  3784.49 21566.1  8813.68    0  11017    0 2000028
 11867.8  84895 169033  38218    0  0  0 11363.2 22226.3 11567.6    0 19281.6 20489 20593.9 21143 21701.7  8078.43 23353.2  9498.63    0  11015    0 2000028
 11868.2  84936 168975  38392    0  0  0 12810.1 24518.1 12775.3    0 21176.5 22956.3 22739.5 23097.5 23773.4  8462.84 26115.6 10259.3    0  11020    0 2000028
 11868.6  84930 168805  38319    0  0  0 13924.2 26871.1 14043.4    0 23342.7 24936.2 24840.7 25577.8 26424.1  6617.14 28326.4 11584.1    0  11020    0 2000028
 11868.9  84929 168591  38310    0  0  0 15993.8 30012.7 15882.2    0 26502 27852 27413.6 28428.1 29484.4  2355.35 31703.6 12836.8    0  11018    0 2000028
 11869.3  84915 168326  38328    0  0  0 17554.2 33894.1 17485.7    0 29665.5 31361.7 31158.6 31896.6 32993.3  1707.09 35640 14240.8    0  11017    0 2000028
 11869.8  84909 167939  38236    0  0  0 20465.3 39767 20632.5    0 34882 36581.9 36555.3 37471.9 38336  5410.79 41715.4 16512.1    0  11014    0 2000028
 11870.2  84899 167502  38233    0  0  0 24085.5 46708 24246.8    0 40332.4 43113.9 42185.9 43733.1 44897.5 13412.8 49004.3 19361.2    0  11014    0 2000028
 11870.6  84895 166897  38238    0  0  0 29111.2 55482.1 28854.1    0 48331.7 51474.2 50460 52051.8 53842.3 10635.2 58150.6 23287.2    0  11016    0 2000028
 11871  84886 166087  38165    0  0  0 35445.2 67772.4 35331.3    0 59078.1 63211.8 61671.2 63669.8 66145.7 18248.1 70592.6 28329.7    0  11013    0 2000029
 11871.3  84871 164957  38221    0  0  0 43615.2 83275.6 43613.9    0 73940.8 79092.7 76383.4 78566.3 80010.7 20407.2 87310.7 34855.3    0  10970    0 2000028
 11871.7  84863 163295  38094    0  0  0 56340 107235 56224    0 95811.6 101656 98027.1 101958 103903 33386.8 111774 44874    0  10968    0 2000028
 11872.1  84859 161467  38076    0  0  0 69914.3 134236 70764.8    0 119991 125972 122196 126406 128943 52506.3 139239 56485.4    0  10967    0 2000028
 11872.6  84856 159324  38095    0  0  0 87781.6 165709 86815.4    0 146607 155952 149750 156217 158910 72791.3 171660 70236.8    0  10964    0 2000028
 11873  84845 157021  37991    0  0  0 106071 198171 105874    0 176440 186879 180571 186633 190810 94678.4 205146 84897.7    0  10962    0 2000028
 11873.3  84826 154927  37986    0  0  0 119929 226916 122152    0 201982 214251 208376 213668 216516 35826 236534 96542.5    0  10966    0 2000028
 11873.7  84820 153185  37998    0  0  0 132730 253718 136772    0 224266 237884 232634 238429 239229 36657.1 263092 107923    0  10960    0 2000028
 11874.1  84800 151944  37909    0  0  0 146218 272092 146503    0 241976 256766 250086 255975 260108 57996.9 282518 119638    0  10958    0 2000029
 11874.5  84787 151462  37915    0  0  0 148020 282493 151531    0 250420 264180 258167 264683 265957 14814.9 291681 122507    0  10957    0 2000028
 11874.9  84753 151321  37891    0  0  0 149966 288178 155837    0 254817 269279 263073 269523 270406 33842.4 297410 122399    0  10952    0 2000028
 11875.3  84711 151212  37853    0  0  0 154382 294842 159569    0 260179 275625 269083 274778 275742 113099 304079 127739    0  10948    0 2000028
 11875.7  84647 150816  37919    0  0  0 160373 302857 161927    0 268094 282801 277566 281401 286427 50154.1 312010 134899    0  10938    0 2000028
 11876.1  84456 149551  37979    0  0  0 171787 324723 174311    0 286328 304098 297557 302383 306837 139603 335445 144409    0  10918    0 2000029
 11876.5  84099 147673  37906    0  0  0 183492 349036 188263    0 305721 325554 318200 325931 328622 70014.5 357814 154036    0  10875    0 2000028
 11876.9  83870 145701  37968    0  0  0 197802 377943 204200    0 333186 351705 343583 350681 354646 31016.4 385985 168175    0  10866    0 2000028
 11877.3  83751 144047  38125    0  0  0 212492 405009 219372    0 355414 376906 367483 376928 378673 117729 411019 178435    0  10872    0 2000028
 11877.7  83696 143005  38068    0  0  0 225156 425268 230259    0 371254 394343 383685 391916 398963 87312 428608 190798    0  10863    0 2000028
 11878.1  83713 143021  38147    0  0  0 222238 422266 230157    0 374130 393868 382628 394592 396278 47828 426993 188817    0  10867    0 2000028
 11878.5  83905 144414  38168    0  0  0 213996 411822 223334    0 362068 381695 373699 383439 381277 33809.2 416854 179487    0  10890    0 2000028
 11878.9  84122 146449  38179    0  0  0 199043 386549 209005    0 338750 359112 352057 358992 356752 28533.9 394476 168953    0  10918    0 2000028
 11879.3  84227 148623  38256    0  0  0 185789 352563 188767    0 308438 326249 319548 327208 329802 160801 358972 158049    0  10926    0 2000029
 11879.7  84283 150651  38275    0  0  0 165281 316749 170364    0 278182 296837 289348 295988 298576 140769 326098 140355    0  10933    0 2000028
 11880.1  84252 152182  38305    0  0  0 147938 288702 155071    0 254374 268744 264615 268860 268712 135470 297523 125383    0  10933    0 2000029
 11880.5  84221 153354  38323    0  0  0 139273 267808 142867    0 236262 248862 245662 249353 251257 103412 275802 117272    0  10932    0 2000028
 11880.9  84234 154356  38284    0  0  0 131965 249848 133622    0 220901 232052 229088 233673 237589 114185 257722 110167    0  10934    0 2000029
 11881.3  84285 155009  38318    0  0  0 125902 241329 128375    0 211993 224144 220613 223186 225293 115026 247320 104613    0  10936    0 2000028
 11881.7  84417 155613  38365    0  0  0 122226 233849 124711    0 207399 219141 214860 219337 222457 109220 241572 102991    0  10950    0 2000028
 11882.1  84551 156059  38323    0  0  0 120003 231808 122943    0 204742 215362 211312 215794 218729 113203 240555 101622    0  10969    0 2000029
 11882.5  84675 156395  38313    0  0  0 117603 229336 122427    0 202057 213978 209939 214547 215396 112902 235746 98217    0  10974    0 2000028
 11882.9  84710 156550  38403    0  0  0 120393 228143 120944    0 201849 211829 207334 213971 216176 109043 233614 100580    0  10980    0 2000028
 11883.3  84703 156593  38303    0  0  0 118605 228186 121086    0 201674 212782 208778 212301 215671 109615 232974 99771    0  10941    0 2000028
 11883.7  84696 156642  38336    0  0  0 115775 225383 120586    0 199112 208943 206988 211097 210250 107181 231606 95864.7    0  10941    0 2000028
 11884.1  84690 156673  38385    0  0  0 117180 226345 119884    0 198764 210265 206910 209916 211422 108583 231684 96374.6    0  10972    0 2000027
 11884.5  84676 156725  38358    0  0  0 119618 225358 119689    0 199475 210817 207308 211003 213852 112202 231754 99457.5    0  10983    0 2000028
 11884.9  84665 156787  38351    0  0  0 115787 223463 118423    0 198191 207400 204115 208320 210100 107206 229943 95970.8    0  10981    0 2000029
 11885.3  84657 156861  38348    0  0  0 115138 222268 118420    0 194753 206017 202407 207634 207691 107864 227755 94879.6    0  10981    0 2000028
 11885.7  84644 156960  38317    0  0  0 114246 220710 117766    0 194644 205605 200151 205230 206878 90352.9 226188 95230.4    0  10975    0 2000028
 11886.1  84637 157033  38293    0  0  0 113977 217885 116039    0 192649 203237 199172 202873 207470 105707 224871 95197    0  10976    0 2000028
 11886.4  84644 157154  38422    0  0  0 113570 216987 116133    0 192294 202406 198727 203975 205908 95152.8 225036 94678.8    0  10977    0 2000028
 11886.8  84622 157214  38357    0  0  0 113195 215322 115141    0 191362 200258 196581 201651 205087 86641 222267 95115.5    0  10978    0 2000029
 11887.2  84602 157268  38356    0  0  0 113130 215470 114809    0 190077 200548 197095 200831 203490 104615 221146 93266.3    0  10973    0 2000028
 11887.7  84584 157314  38294    0  0  0 110565 213005 113249    0 187083 198315 194355 199210 199820 101917 218313 91461.9    0  10944    0 2000029
 11888.1  84576 157382  38273    0  0  0 112213 213722 113389    0 189707 200100 195780 199884 202720 101779 219728 94019.1    0  10927    0 2000028
 11888.5  84558 157405  38284    0  0  0 110646 210457 111795    0 186932 197611 193018 196667 200343 72981.4 217174 92648.1    0  10926    0 2000028
 11888.8  84543 157410  38247    0  0  0 108876 212109 112533    0 187400 197444 194104 198609 200618 93750.6 218478 91651.7    0  10921    0 2000027
 11889.2  84526 157395  38237    0  0  0 108852 210996 112876    0 186754 196618 192360 196547 197118 45368.2 216394 90529.2    0  10917    0 2000028
 11889.7  84501 157380  38178    0  0  0 111631 211103 111870    0 187412 197115 192697 197944 201044 91312.2 217907 92701.3    0  10917    0 2000028
 11890.1  84483 157365  38080    0  0  0 109325 211932 112100    0 186650 196336 192627 197702 199612 93407.2 217086 91829.1    0  10916    0 2000029
 11890.5  84445 157330  38010    0  0  0 109488 209620 111704    0 185653 197161 192918 197687 198796 89494 217066 91213.6    0  10913    0 2000027
 11890.9  84418 157307  37889    0  0  0 109394 208676 110807    0 184808 194719 191607 195669 197865 101875 215940 90577.6    0  10911    0 2000028
 11891.2  84382 157276  37787    0  0  0 109301 209791 111205    0 185457 196006 191118 195847 198720 93813.7 215683 90786.4    0  10918    0 2000028
 11891.6  84333 157195  37757    0  0  0 109354 209945 111645    0 185158 194570 191774 195559 198025 46059.8 214743 91099.2    0  10947    0 2000028
 11892.1  84270 157150  37699    0  0  0 110678 209744 111082    0 185378 195547 190541 195737 199477 96446.2 215247 92512.3    0  10934    0 2000029
 11892.5  84173 157003  37725    0  0  0 107560 208145 110690    0 183532 193577 190205 194863 196410 103492 213609 90448.3    0  10921    0 2000028
 11892.9  84051 156825  37795    0  0  0 107236 206138 109498    0 181365 192275 187765 193014 193675 102247 211679 88115.4    0  10903    0 2000027
 11893.3  83852 156546  37888    0  0  0 107653 205122 108401    0 180699 190613 186415 191033 193356 84867.5 210617 89163.7    0  10876    0 2000028
 11893.6  83533 155982  37999    0  0  0 107174 202729 107347    0 179738 189616 185121 190077 193521 90927.4 209778 88671.3    0  10837    0 2000028
 11894  82853 154756  38108    0  0  0 105144 199052 106116    0 177385 187056 182693 187455 189723 93703.8 207100 86919.7    0  10756    0 2000028
 11894.4  81783 152791  38110    0  0  0 101416 196750 103449    0 172752 183345 178468 183579 184236 71988.9 201783 83599.1    0  10627    0 2000028
 11894.9  81142 151667  38213    0  0  0 101882 195209 102863    0 172532 181743 177742 182710 184498 87261.7 201506 84435    0  10557    0 2000028
 11895.3  81174 151834  38316    0  0  0 101095 191805 101800    0 170829 180114 174243 180539 183308 42018.7 198058 84056.5    0  10560    0 2000028
 11895.6  81749 152964  38354    0  0  0 100580 193355 103120    0 171927 180497 176313 180654 182868 83782.8 199079 82999.5    0  10630    0 2000028
 11896  82810 155064  38421    0  0  0 100111 194195 103405    0 172141 182387 176763 182006 182757 94345.9 200067 83159.4    0  10756    0 2000028
 11896.4  83808 156992  38527    0  0  0 103438 196964 104593    0 173549 183679 178580 184698 186631 91682.2 203562 85207.5    0  10869    0 2000029
 11896.8  84448 158254  38525    0  0  0 102684 197433 104941    0 174981 183454 178857 185002 185852 91971.9 202633 84993.5    0  10947    0 2000028
 11897.2  84691 158746  38578    0  0  0 103256 197668 104780    0 174763 184688 178567 184721 187399 89866.3 202889 86721.8    0  10978    0 2000028
 11897.7  84719 158855  38531    0  0  0 102688 196755 103913    0 173326 183194 177404 183780 186540 93048.9 201596 85319.5    0  10981    0 2000029
 11898  84708 158899  38539    0  0  0 100697 195564 102958    0 172231 182626 177785 182348 183456 93182.9 200343 83662.7    0  10978    0 2000028
 11898.4  84689 158915  38540    0  0  0 102087 195121 103447    0 171785 181307 176688 183089 184396 91331.8 199831 84178.3    0  10974    0 2000028
 11898.8  84675 158954  38519    0  0  0 102522 193330 102751    0 171775 182121 176343 180815 185827 88481.7 200176 86432.2    0  10968    0 2000028
 11899.2  84652 158957  38531    0  0  0 98384.4 191861 101830    0 169241 178804 175095 179843 179624 93845.4 197788 82145.4    0  10969    0 2000028
 11899.7  84636 159018  38551    0  0  0 99324.8 192303 101789    0 169696 179305 175583 180520 181705 94170.7 197647 82190.7    0  10967    0 2000028
 11900.1  84626 159029  38572    0  0  0 99202.6 191563 100989    0 168240 178392 172462 177884 180528 93504.8 194539 83255.9    0  10964    0 2000029
 11900.5  84606 159081  38557    0  0  0 99040.7 189875 100992    0 167900 177001 173560 178351 178753 91822.1 195082 81695    0  10965    0 2000028
 11900.8  84595 159131  38612    0  0  0 98714.2 188343 99606.8    0 166092 176046 171595 176477 177629 87265.8 193461 80876.3    0  10962    0 2000028
 11901.2  84582 159154  38533    0  0  0 97189.6 186439 98783.3    0 165569 175113 170493 175738 177864 85623.2 193516 80560.3    0  10961    0 2000028
 11901.6  84572 159262  38559    0  0  0 96228.7 186688 99008    0 165122 173793 168981 175509 175521 89276.1 191775 79761.6    0  10961    0 2000027
 11902.1  84563 159322  38606    0  0  0 96690.2 185451 98118.2    0 164078 172085 169443 173335 174531 92019.4 190191 79644.6    0  10960    0 2000029
 11902.5  84552 159375  38555    0  0  0 97272.2 184529 97553    0 163420 172708 167260 173067 174851 89710 189297 80899.6    0  10957    0 2000028
 11902.9  84536 159418  38538    0  0  0 94333.9 182582 97392.6    0 162765 170748 166945 170467 173218 89424.2 188233 79349.4    0  10950    0 2000028
 11903.2  84533 159515  38543    0  0  0 93654 180776 95226.1    0 160034 169280 164572 169582 170969 81876.4 185644 77162.1    0  10953    0 2000028
 11903.6  84520 159592  38578    0  0  0 92809.3 177896 94409.1    0 157789 167361 162572 167374 168773 86280.7 183632 77693.6    0  10951    0 2000028
 11904  84507 159676  38534    0  0  0 93440.5 178480 94220    0 156938 165335 161706 166090 169780 87395.9 182106 77511.1    0  10952    0 2000028
 11904.2  84503 159704  38550    0  0  0 91721.9 176314 93362.4    0 156200 165148 160408 165266 167830 87360.7 181775 75967.3    0  10947    0 2000028
 11905.3  84478 159971  38609    0  0  0 89358.7 172263 90575.5    0 151854 160436 156467 160998 162362 85753.5 176193 73952.6    0  10945    0 2000028
 11906.3  84446 160227  38556    0  0  0 87605.7 167518 88317.4    0 147946 155548 151663 156139 158963 82837.7 170959 72697.2    0  10942    0 2000028
 11907.5  84376 160404  38511    0  0  0 83813.9 162329 86355.1    0 144010 152918 148130 152496 154398 79555.3 167305 69860.4    0  10933    0 2000028
 11908.6  84322 160574  38534    0  0  0 81295.1 158460 83279.4    0 140610 148170 143590 148120 149601 65847.2 162561 67693.8    0  10924    0 2000028
 11909.8  84366 160846  38531    0  0  0 81788.9 156008 82608.4    0 138292 145414 142080 146792 148518 75416.5 160380 67282.7    0  10930    0 2000029
 11910.9  84334 160921  38519    0  0  0 78228.8 152490 80994.8    0 135014 143051 139565 142663 143463 74439 157427 64847.8    0  10927    0 2000027
 11912.1  84335 161023  38524    0  0  0 78245.6 152167 80113.9    0 134438 142486 137185 143225 142923 75356.9 156998 64317.7    0  10927    0 2000028
 11913.3  84349 161104  38559    0  0  0 80104.5 152969 80030.1    0 136066 142805 139112 142922 146081 74004.8 157833 66604.2    0  10927    0 2000028
 11914.5  84311 161028  38467    0  0  0 80592.3 153602 80662.1    0 135349 142777 138326 142654 146097 59223.8 156482 66674.2    0  10924    0 2000028
 11915.7  84292 160941  38497    0  0  0 79455 153949 80957.6    0 136092 143951 139504 143433 145762 71620.8 158084 65105.3    0  10922    0 2000028
 11917  84276 160862  38483    0  0  0 81304 156251 82130.4    0 139151 146082 140744 146503 147087 29728.8 160598 66802.7    0  10921    0 2000028
 11918.2  84260 160774  38427    0  0  0 83032.3 156897 83292.8    0 139005 146684 142373 147484 150010 32565.4 162365 68148.6    0  10919    0 2000029
 11919.6  84243 160663  38456    0  0  0 83621.3 160012 84189.7    0 141280 148725 144075 150035 152542 26328.3 164153 69332.9    0  10919    0 2000028
 11920.9  84226 160553  38484    0  0  0 84173.1 160984 84966.6    0 143003 150660 145783 150892 151814 24395.5 165772 69119.1    0  10913    0 2000027
 11922.3  84202 160422  38415    0  0  0 83612.3 164144 86037.7    0 144998 152578 148675 152131 153960 52768.4 168585 69207.8    0  10913    0 2000028
 11923.5  84186 160284  38439    0  0  0 87124.8 165570 86843.3    0 146416 154305 149624 154547 156933 48336.2 169317 71921.2    0  10908    0 2000028
 11924.9  84164 160162  38399    0  0  0 87145.4 167912 88500.3    0 148612 156134 151888 156083 158991 17323.2 171792 72715.6    0  10899    0 2000028
 11926.3  84131 160030  38388    0  0  0 88377.1 169871 89908.5    0 150146 158190 153719 159425 161452 44061.1 174496 73883.7    0  10898    0 2000029
 11927.7  84117 159903  38431    0  0  0 89563.3 172132 91223.6    0 152937 161514 156012 161766 163900 47119.4 177541 74419.6    0  10898    0 2000028
 11929.2  84085 159749  38361    0  0  0 90818.7 174900 92428.5    0 155777 163254 159255 163492 166332 78901.3 179734 75086.2    0  10896    0 2000028
 11930.6  84076 159599  38333    0  0  0 92429 177137 93754.3    0 155910 165249 160717 165335 167041 73993 181152 76274.2    0  10892    0 2000027
 11932.1  84039 159439  38383    0  0  0 94751.7 180156 95000.4    0 159918 167971 162947 168707 172088 85168.8 184597 78571.2    0  10887    0 2000029
 11933.5  84019 159331  38307    0  0  0 93845.4 182237 97089    0 161022 169943 165373 170916 171833 88530.8 186264 77608.9    0  10886    0 2000029
 11935  83965 159100  38311    0  0  0 95881.6 184645 98050.6    0 163797 173442 167836 173389 175131 85846.6 190255 78969.1    0  10878    0 2000029
 11936.5  83778 158674  38354    0  0  0 98210.4 186544 98602.2    0 166331 174439 170243 175118 178625 91695.7 194216 81517    0  10855    0 2000028
 11938  84010 158998  38304    0  0  0 100615 190021 99952.3    0 169186 177523 172094 178408 182713 93430.6 195550 83089.3    0  10885    0 2000028
 11939.7  83994 158878  38304    0  0  0 101350 193347 102496    0 171545 180851 175452 180827 183706 95320.6 198663 84819.8    0  10880    0 2000028
 11941.2  83982 158801  38354    0  0  0 101436 195587 104033    0 172616 182717 177556 181941 184464 94553.8 200562 83547.1    0  10878    0 2000029
 11942.7  83961 158732  38306    0  0  0 102907 197768 104397    0 173909 183185 178498 183213 186307 91675.5 202408 85786.4    0  10874    0 2000028
 11944.3  83939 158698  38331    0  0  0 104356 196775 103893    0 173711 183860 178176 183798 186639 76425 201069 86819.4    0  10870    0 2000028
 11945.9  83918 158652  38290    0  0  0 103003 198062 105274    0 174559 184947 179752 184596 186256 91537.8 203802 86158.4    0  10866    0 2000028
 11947.6  83900 158631  38204    0  0  0 103350 199809 106798    0 176795 187255 181979 187102 189749 97433.4 206268 86595.2    0  10861    0 2000029
 11949.3  83887 158675  38274    0  0  0 104052 199729 106171    0 176785 186054 182143 186621 189063 97983.8 205986 87377.4    0  10856    0 2000028
 11950.9  83875 158700  38309    0  0  0 104683 199841 106618    0 176800 185982 181741 187366 188878 89304.8 205705 87380.5    0  10856    0 2000028
 11952.7  83852 158761  38246    0  0  0 104878 199660 105889    0 176548 186593 180995 186703 189927 91975.1 204333 86845.2    0  10858    0 2000028
 11954.4  83828 158764  38283    0  0  0 103876 199191 105546    0 177702 186071 180884 186482 190017 94875.7 205048 86405    0  10856    0 2000028
 11956.1  83806 158812  38208    0  0  0 104019 199166 106497    0 176170 185729 180968 186796 188238 95099.7 204621 86145.3    0  10855    0 2000028
 11957.9  83792 158922  38245    0  0  0 103005 198300 105225    0 175235 185116 180402 185900 188508 98811.8 203547 85121.2    0  10850    0 2000028
 11959.7  83777 158955  38245    0  0  0 103583 197240 104451    0 175333 185970 179711 185717 188934 88731.7 204205 87026.6    0  10847    0 2000029
 11961.5  83751 159031  38261    0  0  0 103584 199065 105432    0 176306 186131 180385 185339 187708 96409.1 203880 86737.6    0  10843    0 2000028
 11963.2  83846 159293  38291    0  0  0 101995 197305 105483    0 174016 184567 179274 184802 186880 88584 202955 84929.8    0  10860    0 2000028
 11965.1  84134 159970  38411    0  0  0 102869 199539 105541    0 177155 186114 182052 187419 186547 49299.2 206215 85600.3    0  10890    0 2000028
 11967.1  84235 160224  38468    0  0  0 106015 199523 105795    0 176524 186177 181406 186572 190263 84720.8 203602 87365.5    0  10903    0 2000028
 11969  84196 160259  38417    0  0  0 103465 197709 104728    0 176005 185970 180439 186532 188881 90158.9 203672 86918.4    0  10900    0 2000028
 11970.8  84175 160344  38373    0  0  0 101344 197725 105275    0 174266 184475 181324 185094 185300 83333.3 202348 84221.4    0  10896    0 2000028
 11972.8  84681 161397  38605    0  0  0 102799 198677 105489    0 175777 186012 180865 185717 186404 75843.8 204362 85733.5    0  10954    0 2000028
 11974.8  85364 162861  38816    0  0  0 106128 200470 107201    0 177429 187836 182317 187195 191227 35889.1 206050 88722.4    0  11033    0 2000028
 11976.8  86028 164280  38950    0  0  0 104177 200633 106904    0 178577 189752 184370 189722 190821 63324.8 208299 87464.7    0  11111    0 2000029
 11978.8  86213 164774  38878    0  0  0 104281 200832 106098    0 177165 187197 181067 187132 188209 13764.8 205785 85397.6    0  11130    0 2000028
 11980.8  85041 162674  38986    0  0  0 102340 197454 104817    0 174615 183965 179306 183839 185318 38806.7 202899 85301.9    0  10991    0 2000028
 11982.8  85909 164475  39013    0  0  0 104523 198470 105124    0 175882 185966 180763 185169 188810 23170.1 204776 87413.8    0  11092    0 2000028
 11984.9  85717 164291  39157    0  0  0 101489 196801 103919    0 173487 183338 179242 184334 185372 52594.6 201180 84623.4    0  11067    0 2000028
 11987.1  86170 165353  39232    0  0  0 101943 194723 104561    0 172962 183286 177885 183217 185615 27406.5 200893 85004.9    0  11116    0 2000028
 11989.2  86490 166176  39354    0  0  0 102260 196265 104435    0 172910 182506 178011 182617 185685 78739.8 200632 84899.5    0  11151    0 2000028
 11991.3  86657 166646  39350    0  0  0 101383 194069 103484    0 171056 180855 176128 181236 183307 21741.4 199884 84015.2    0  11175    0 2000028
 11993.4  86783 167063  39379    0  0  0 100896 192891 102940    0 172522 180313 176069 181524 183717 37687.6 198930 84004.7    0  11191    0 2000029
 11995.5  86780 167210  39391    0  0  0 102068 193358 103380    0 171205 180619 176494 181834 184459 53289.1 198744 85243.1    0  11189    0 2000028
 11997.7  86735 167237  39357    0  0  0 98526.3 193127 102046    0 171245 180696 175323 180578 181910 53402.9 198181 83566    0  11179    0 2000028
 12000  86709 167316  39324    0  0  0 99533.9 192330 101916    0 168935 178840 173921 178927 179162 85747 197171 81354.1    0  11180    0 2000028
 12002.2  86674 167347  39308    0  0  0 100921 191139 101678    0 169696 179327 173850 178994 181352 88790 197315 83469.6    0  11174    0 2000028
 12004.4  86654 167411  39313    0  0  0 101163 191820 102809    0 169216 179032 174645 179602 182086 84031.5 198487 83542.9    0  11171    0 2000028
 12006.6  86620 167378  39270    0  0  0 99799.7 192844 101975    0 169406 179875 173859 179307 181477 56970.3 196955 82582.4    0  11169    0 2000029
 12008.9  86585 167392  39250    0  0  0 100101 192905 101765    0 170885 180050 174591 180413 182714 31739 197776 83399.1    0  11161    0 2000028
 12011.1  86569 167433  39225    0  0  0 101149 193614 101920    0 170629 181205 175267 180929 183874 81835.4 199820 85127.1    0  11161    0 2000028
 12013.4  86542 167401  39205    0  0  0 101534 194312 103310    0 171830 181150 175226 182661 184668 78182.8 200118 84982.5    0  11155    0 2000029
 12015.7  86513 167431  39161    0  0  0 100436 193835 103320    0 171572 181694 177177 181533 183342 79423.4 199088 83326.3    0  11146    0 2000028
 12018.1  86473 167360  39123    0  0  0 100708 194832 104202    0 173101 181599 176854 182229 184258 88209.2 201840 84095.1    0  11148    0 2000028
 12020.4  86435 167362  39081    0  0  0 104076 196059 103787    0 173451 183149 178068 183183 186093 57073.9 201143 85894.5    0  11138    0 2000028
 12022.7  86328 167176  39062    0  0  0 103131 197887 104736    0 174845 185248 180189 185024 187517 90520 203223 86162.6    0  11125    0 2000028
 12025.1  86285 167149  39093    0  0  0 102956 198250 104936    0 175495 184267 180196 185546 188294 73478.3 203566 86414.8    0  11120    0 2000028
 12027.6  86365 167351  39121    0  0  0 103955 198978 105628    0 175844 186489 180762 186482 187063 77470 204651 86826    0  11131    0 2000028
 12030  86256 167198  39103    0  0  0 104496 199932 106713    0 177229 187128 182452 187640 190057 91427.8 206237 86342.4    0  11114    0 2000027
 12032.4  86294 167326  39076    0  0  0 105062 200743 106699    0 177301 185534 181863 187061 188912 48507.7 205922 86586.3    0  11121    0 2000028
 12034.8  86259 167295  39000    0  0  0 106724 201704 106806    0 177728 187657 183359 188215 191094 43937 206630 88227.6    0  11117    0 2000028
 12037.4  86120 167084  39025    0  0  0 103661 203030 106682    0 178486 188612 184636 188488 189465 78785.8 208230 86883    0  11101    0 2000029
 12039.8  86076 167078  39066    0  0  0 105017 202548 107615    0 178848 188979 184401 188698 189864 97638.6 207732 87144.5    0  11097    0 2000029
 12042.3  86112 167212  39050    0  0  0 106176 204018 107982    0 179340 189333 184332 189626 190862 97167.8 208828 88124.6    0  11097    0 2000028
 12044.8  86175 167413  39045    0  0  0 107815 204281 108644    0 181768 191273 185629 191651 194991 97156.7 210526 89805.7    0  11102    0 2000028
 12047.3  85971 167130  39041    0  0  0 107067 204602 108239    0 180844 190308 185416 190439 192497 54152.2 209223 89054.1    0  11073    0 2000027
 12049.9  86088 167425  38995    0  0  0 106541 203353 108898    0 181276 191638 185633 191759 192315 86302.6 208811 88077.2    0  11088    0 2000029
 12052.4  86085 167531  39048    0  0  0 107785 204125 108383    0 180714 190177 185670 191933 194083 21739.9 210191 89925.2    0  11090    0 2000029
 12055  86042 167556  39047    0  0  0 108442 204895 109266    0 182209 190897 187432 192311 196430 45817.9 210885 90774.4    0  11083    0 2000029
 12057.7  86019 167628  38978    0  0  0 106297 205436 108843    0 181555 191775 186880 193120 193791 82719.1 210695 88979.9    0  11079    0 2000029
 12060.3  85992 167660  38984    0  0  0 106764 205711 108698    0 181868 192422 187185 191661 193490 61507.4 212187 87854.8    0  11077    0 2000029
 12062.9  85967 167719  38950    0  0  0 106766 205225 109135    0 180566 191562 186406 191480 193481 93808.6 211773 89967.5    0  11073    0 2000028
 12065.5  85913 167740  38904    0  0  0 109605 206274 110023    0 182490 192370 187420 193649 196192 90459.2 212073 91209.2    0  11067    0 2000028
 12068.2  85881 167770  38918    0  0  0 107609 205845 109473    0 181025 191410 186006 191557 194991 54540.3 210891 90377.7    0  11064    0 2000028
 12070.9  85856 167842  38905    0  0  0 106944 207038 110068    0 182752 192493 188496 192661 195013 93759.1 212333 89271.6    0  11059    0 2000028
 12073.5  85820 167858  38814    0  0  0 107770 204878 109615    0 181286 192609 188416 192383 194612 40257.5 211099 89642.1    0  11054    0 2000029
 12076.2  85793 167947  38853    0  0  0 108349 204525 108121    0 182008 191189 186132 191716 196587 16436.3 210331 90767.8    0  11047    0 2000028
 12079  85763 167981  38843    0  0  0 107823 206372 109647    0 182779 192624 187959 193222 196624 28643 211760 89126.2    0  11043    0 2000028
 12081.7  85738 168043  38792    0  0  0 107897 206398 110101    0 182300 193324 187293 193030 195023 23639.9 211749 89784.8    0  11040    0 2000028
 12084.5  85702 168107  38807    0  0  0 106557 205851 108574    0 182038 192231 187381 191955 193801 14139.8 210320 89888    0  11036    0 2000028
 12087.3  85667 168137  38796    0  0  0 107593 205631 109461    0 182866 192957 187708 193252 194903 13836.1 211578 90037.5    0  11031    0 2000028
 12090.2  85626 168196  38733    0  0  0 109365 206533 109787    0 182398 192320 187647 193266 195868 15377.9 210912 89931.6    0  11025    0 2000028
 12093.1  85566 168212  38754    0  0  0 107838 205605 109633    0 181961 191998 187781 192351 194679 93560 211524 90298.2    0  11014    0 2000028
 12095.9  85559 168329  38779    0  0  0 107761 205903 109961    0 182809 192657 186742 192011 195512 95029.5 211592 89846.4    0  11008    0 2000028
 12098.9  85525 168433  38672    0  0  0 107823 205095 109046    0 182141 191965 187594 192477 194508 94215.8 212008 89450.7    0  11004    0 2000028
 12101.7  85506 168522  38737    0  0  0 108642 205519 109326    0 183398 192536 187403 192762 195278 95695.4 210783 90534    0  11002    0 2000029
 12104.6  85476 168576  38748    0  0  0 107753 205529 109242    0 182786 190861 187827 193360 196480 101829 212030 90885.6    0  10995    0 2000028
 12107.7  85438 168664  38711    0  0  0 105291 205180 108859    0 181466 191908 187744 193005 192344 96576.8 211368 87856.7    0  10990    0 2000028
 12110.6  85400 168717  38664    0  0  0 105661 204389 109419    0 181067 189568 186293 190126 192111 90257.5 209798 87541.7    0  10988    0 2000028
 12113.6  85289 168650  38747    0  0  0 108066 204968 108799    0 182228 191251 186755 191592 195970 52667.4 211062 90752.6    0  10975    0 2000029
 12116.6  85348 168907  38733    0  0  0 106335 203973 108082    0 180362 191247 186278 190449 193236 94491 209967 89393.1    0  10981    0 2000029
 12119.6  85322 168966  38696    0  0  0 104875 203476 108085    0 179347 189559 185755 190039 191807 97795.6 208391 86569.5    0  10976    0 2000028
 12122.7  85271 169001  38721    0  0  0 107319 205252 108979    0 181559 190772 186365 192069 193206 71280.4 209838 88471.8    0  10971    0 2000028
 12125.8  85230 169071  38669    0  0  0 108260 204049 108325    0 180382 189512 185458 190905 193216 49401.7 208719 89730.8    0  10960    0 2000028
 12129  85162 169080  38543    0  0  0 105877 204164 108045    0 180761 190808 185646 189821 191660 21648.4 209352 88332    0  10953    0 2000028
 12132.1  85058 168960  38169    0  0  0 105851 204058 108183    0 179161 189614 185390 191595 191248 48088.7 208194 87064.4    0  10940    0 2000028
 12135.2  83147 165263  38517    0  0  0 103611 198295 105518    0 176114 185855 180603 186559 187578 45534.5 204770 86023.9    0  10712    0 2000028
 12138.4  85138 169408  38602    0  0  0 107807 203300 108340    0 179641 189863 185091 190004 194278 38749.8 209672 89332.7    0  10948    0 2000028
 12141.6  85060 169359  38480    0  0  0 106339 204333 108317    0 180764 189855 185708 189983 193269 29909.2 208983 88461.6    0  10935    0 2000029
 12144.8  84848 169063  38514    0  0  0 106071 203918 109245    0 180193 190213 185323 190642 193121 45160.4 209684 88484.6    0  10913    0 2000029
 12148  84925 169344  38524    0  0  0 107659 206117 109370    0 181420 191408 186813 192406 194721 93955.6 211206 89920    0  10916    0 2000029
 12151.2  84915 169434  38464    0  0  0 107531 206199 109001    0 182125 191668 187519 192219 194454 61858.7 210500 89413.4    0  10919    0 2000027
 12154.5  84885 169518  38474    0  0  0 107298 204393 109190    0 181758 191633 185325 191202 193449 78503.2 211146 88837.7    0  10916    0 2000029
 12157.8  84861 169581  38446    0  0  0 107261 206075 109721    0 181390 191630 187640 191824 195164 69748.6 211549 90038.1    0  10911    0 2000028
 12161.1  84807 169613  38381    0  0  0 106037 205465 109083    0 182586 191439 186940 192046 194432 90171.3 211131 89343.5    0  10904    0 2000029
 12164.5  84768 169657  38342    0  0  0 107339 206820 109044    0 182154 192959 186591 192776 194692 93958.3 209812 88601    0  10896    0 2000028
 12167.9  84691 169625  38366    0  0  0 108049 207063 110312    0 183008 192860 189116 192944 195814 96057.8 212356 90182.1    0  10887    0 2000028
 12171.3  84671 169732  38311    0  0  0 108954 208059 110576    0 183891 193161 189042 194052 197485 92942.9 214218 91169.5    0  10883    0 2000028
 12174.7  84623 169758  38304    0  0  0 107599 207552 109494    0 183801 193420 188495 193412 195867 66149.3 212938 89496.5    0  10874    0 2000029
 12178.1  84518 169653  38260    0  0  0 107820 207962 110338    0 182716 193913 187936 195085 195295 58390.4 211902 89461.7    0  10860    0 2000028
 12181.5  84566 169902  38330    0  0  0 110013 207876 110044    0 182880 193031 189912 193583 196420 95483.6 213275 90903    0  10864    0 2000028
 12185  84523 169990  38330    0  0  0 110561 207436 110725    0 184330 195065 189243 194388 198731 89872.4 214163 92015.4    0  10861    0 2000028
 12188.5  84488 170052  38285    0  0  0 107292 207603 110720    0 184033 194751 189353 195334 195742 61563.2 213603 89455.8    0  10856    0 2000027
 12191.9  84461 170137  38380    0  0  0 108794 207835 111015    0 184888 195434 189439 195520 196923 88765 213366 89008    0  10856    0 2000028
 12195.6  84454 170238  38293    0  0  0 108513 207677 110209    0 184508 193538 189339 194509 196944 21249.4 213177 90687.1    0  10851    0 2000028
 12199.1  84149 169774  38333    0  0  0 110072 208388 110891    0 184926 194454 189037 194373 199376 20976.9 213322 91515.4    0  10812    0 2000028
 12202.6  84373 170390  38334    0  0  0 109422 208812 111123    0 184648 194239 190073 195641 196961 36008.8 215037 90139.6    0  10839    0 2000028
 12206.2  84333 170432  38324    0  0  0 108292 210429 111805    0 184455 195290 191377 196955 197658 74505.7 216477 90456    0  10832    0 2000028
 12209.7  84277 170480  38305    0  0  0 109613 209341 110285    0 183818 193681 190387 193574 197533 78134.9 213472 91213.1    0  10827    0 2000028
 12213.3  84238 170536  38262    0  0  0 110673 209675 111198    0 185032 195422 190426 195102 199841 101521 215627 92608.8    0  10820    0 2000028
 12216.9  84203 170605  38254    0  0  0 108657 208471 111753    0 184949 194273 190611 195599 198313 96609 214758 90011.4    0  10814    0 2000027
 12220.5  84116 170561  38157    0  0  0 109193 210126 111547    0 185740 195133 190224 195828 197048 94099.9 215774 90167    0  10805    0 2000028
 12224.2  84078 170624  38122    0  0  0 108723 209644 111754    0 184569 196692 190491 196302 196269 102458 215320 91072.8    0  10800    0 2000028
 12227.7  84032 170696  38113    0  0  0 110797 210079 110760    0 184960 195926 190917 196273 198894 96586 215071 92315    0  10794    0 2000028
 12231.5  83957 170697  38089    0  0  0 109488 210497 111815    0 185485 196425 191063 195359 199428 100743 216083 91316    0  10782    0 2000028
 12235.2  83786 170521  37973    0  0  0 108079 208971 111562    0 183930 194402 189628 195186 196375 102662 214747 89486.5    0  10761    0 2000028
 12238.9  83819 170700  37955    0  0  0 110112 210390 111604    0 185870 195842 191825 196089 198891 103056 215436 92315.5    0  10743    0 2000028
 12242.7  83603 170426  37945    0  0  0 111418 209539 110972    0 185226 195779 190369 196598 199939 88991.1 215194 91748.5    0  10691    0 2000028
 12246.4  83562 170521  37770    0  0  0 108470 209345 110423    0 184130 194584 190557 194783 196068 47442.7 214286 89954.1    0  10685    0 2000028
 12250.3  83243 169979  37052    0  0  0 107648 208877 111224    0 183747 193805 188730 193529 196841 87687.9 213966 90341    0  10647    0 2000029
 12254  81192 165801  36451    0  0  0 105873 204077 108684    0 180293 189819 185189 190513 192527 39385.2 208917 88513.2    0  10407    0 2000028
 12257.9  82396 168490  37884    0  0  0 108122 206039 109917    0 182466 191515 187425 193185 195329 16207 211551 90497    0  10547    0 2000028
 12261.8  83921 171927  38083    0  0  0 109934 210050 111837    0 186204 196237 191594 195878 199502 47214.1 216390 91676.5    0  10723    0 2000028
 12265.6  83867 172009  38084    0  0  0 110534 210242 111759    0 185656 195640 190868 196234 199660 52506.4 216325 92370.1    0  10717    0 2000028
 12269.5  83825 172065  38109    0  0  0 109907 211297 111733    0 184974 196318 192014 196696 199854 74536.7 214752 91452.2    0  10743    0 2000028
 12273.5  83751 172086  38172    0  0  0 110510 210920 112336    0 185751 195950 191377 197225 199035 100158 216491 91770.8    0  10743    0 2000029
 12277.4  83691 172113  38077    0  0  0 110197 208890 111552    0 185071 196041 189953 195267 198063 43255.3 214927 91649.2    0  10738    0 2000028
 12281.5  83613 172129  37965    0  0  0 110989 210213 111238    0 185623 196200 192387 196085 199773 81897.8 214785 92521.7    0  10720    0 2000029
 12285.5  83063 171116  37996    0  0  0 108532 207547 111081    0 183530 194637 189345 195266 195673 57686.2 214420 89260.6    0  10658    0 2000029
 12289.5  83543 172300  38044    0  0  0 108029 209631 111775    0 184326 195606 190958 195550 196225 27542.5 215833 90525.2    0  10694    0 2000028
 12293.5  83506 172435  38046    0  0  0 111549 210016 111537    0 185597 195935 191723 196753 200294 95884.4 215552 92416    0  10708    0 2000028
 12297.7  83455 172471  38041    0  0  0 109483 211237 112131    0 186712 196553 192104 197770 199884 103291 215783 91817.1    0  10701    0 2000028
 12301.6  83356 172421  37950    0  0  0 108460 211145 112417    0 186527 197016 191367 196594 198173 102804 216990 89582.6    0  10685    0 2000029
 12305.9  83287 172457  37929    0  0  0 109836 210304 111752    0 186297 196343 191420 196407 198378 97784.4 215226 90959.9    0  10677    0 2000029
 12309.8  83266 172560  37921    0  0  0 110432 210833 112301    0 186495 196630 192131 196303 199788 99817 215814 93377    0  10674    0 2000028
 12314  83199 172603  37916    0  0  0 110422 211359 112910    0 187401 197513 193536 197187 200756 103931 216751 91782.8    0  10667    0 2000028
 12318.1  83156 172670  37883    0  0  0 109539 211130 112697    0 186381 196967 192577 197579 199355 102122 217083 90274.8    0  10664    0 2000028
 12322.2  83054 172639  37860    0  0  0 109487 211194 112290    0 186924 198163 191977 197281 198795 97599.8 217398 91772.3    0  10649    0 2000029
 12326.4  83006 172720  37787    0  0  0 111804 211131 111730    0 187167 197129 192629 197785 201275 102185 217417 93247.3    0  10642    0 2000028
 12330.5  82964 172813  37703    0  0  0 109793 211283 112687    0 186273 197387 192420 197047 198966 103142 216819 92343.8    0  10637    0 2000028
 12334.8  82923 172869  37760    0  0  0 110241 210527 112613    0 187276 196788 193154 197633 199529 103255 217857 92053.3    0  10631    0 2000028
 12339  82873 172922  37761    0  0  0 110479 211991 112266    0 187148 197291 192970 198046 201187 85051 217978 91994.9    0  10621    0 2000028
 12343.2  82818 173015  37782    0  0  0 110796 212475 112144    0 187653 197301 193149 197857 200830 89038 217589 92677.7    0  10614    0 2000028
 12347.5  82777 173103  37763    0  0  0 110031 211742 112883    0 187764 198103 192130 197752 199879 91915.4 217692 92217.7    0  10606    0 2000028
 12351.7  82768 173236  37885    0  0  0 109848 211432 113197    0 187831 197707 193314 198911 200611 92378.3 218353 92573.7    0  10597    0 2000028
 12356.1  82728 173341  37805    0  0  0 108722 211131 112609    0 186031 196555 192717 197893 197421 16282.7 216685 90298.8    0  10595    0 2000029
 12360.3  82677 173385  37861    0  0  0 111240 213275 113492    0 188407 198222 193710 199687 200765 40538.6 219175 92098.4    0  10590    0 2000028
 12364.6  82608 173437  37844    0  0  0 110987 212069 113378    0 187720 198719 194102 197808 199217 81634.7 217905 92566.8    0  10583    0 2000028
 12369  82557 173489  37834    0  0  0 110276 212320 113394    0 187066 197936 192667 197471 200971 79382.8 217640 92558    0  10575    0 2000028
 12373.2  82507 173548  37818    0  0  0 109452 210900 113060    0 187068 197064 192913 197173 198675 80438.4 218480 91407.6    0  10569    0 2000028
 12377.6  82457 173631  37809    0  0  0 110736 212849 112988    0 187587 198358 193816 198894 200226 101220 218574 91117.8    0  10560    0 2000027
 12382  82216 173298  37796    0  0  0 110829 210378 113220    0 187447 198135 192801 197677 201920 97033.8 218154 92871.4    0  10528    0 2000029
 12386.3  82305 173705  37732    0  0  0 111426 211765 113296    0 188058 197640 194085 199000 201923 96065.5 218666 93305.9    0  10534    0 2000029
 12390.9  82240 173737  37706    0  0  0 109326 212359 113132    0 187402 198833 194017 198467 199122 102848 218685 90920.7    0  10525    0 2000028
 12395.3  82161 173752  37660    0  0  0 110739 212311 112687    0 188493 198379 193734 197376 199370 99044.7 218980 91214.6    0  10512    0 2000029
 12399.8  82010 173605  37583    0  0  0 111030 211576 113551    0 186544 198094 193805 197712 199909 84987.8 217950 92113.6    0  10495    0 2000028
 12404.3  81996 173745  37532    0  0  0 112116 211035 112988    0 187154 197759 194059 198448 200149 104021 217966 92751.9    0  10494    0 2000028
 12408.8  81809 173566  37554    0  0  0 109989 212254 114075    0 187772 198133 193372 198339 199901 100370 217304 91491.4    0  10475    0 2000028
 12413.3  81925 173999  37500    0  0  0 110380 213433 113491    0 188601 198331 193970 199284 201173 52254.6 219494 91800.8    0  10488    0 2000028
 12417.9  81891 174114  37568    0  0  0 112185 214112 113493    0 188517 199440 194008 199787 202049 36160.8 219098 93746    0  10482    0 2000028
 12422.5  81847 174201  37502    0  0  0 112647 212422 113006    0 187223 199073 193295 198151 200886 22662.7 218439 93221.5    0  10476    0 2000029