File: example/Fe/As_200e_39_02.xdi
# XDI/1.0 GSE/1.0
# Scan-start_time: 2024-10-06T11:30:56
# Column.1: energy eV
# Column.2: I0_eh2
# Column.3: I1_eh2
# Column.4: IX_eh2
# Column.5: IR_eh2
# Column.6: c8
# Column.7: c9
# Column.8: fluo01
# Column.9: fluo02
# Column.10: fluo03
# Column.11: fluo04
# Column.12: fluo05
# Column.13: fluo06
# Column.14: fluo07
# Column.15: fluo08
# Column.16: fluo09
# Column.17: fluo10
# Column.18: fluo11
# Column.19: fluo12
# Column.20: fluo13
# Column.21: I0_eh1
# Column.22: I1_eh1
# Column.23: IX_eh1
# Mono.name: Si 111
# Mono.d_spacing: 3.134692
# Mono.notes: LNT cooled
# Beamline.name: BM08-LISA
# Facility.name: ESRF
# Facility.xray_source: Bending magnet
# ---------
# BraggEnergy I0_eh2 I1_eh2 IX_eh2 IR_eh2 c8 c9    fluo01   fluo02   fluo03 fluo04   fluo05   fluo06   fluo07   fluo08   fluo09   fluo10   fluo11   fluo12 fluo13 I0_eh1 I1_eh1 IX_eh1
 11725.7  87359 162166  38790    0  0  0  962.495  1783.38  1091.79    0  1494.95  1491.23  1851.61  1522.15  1650.08  1261.34  1869.38  1175.93    0  11340    0 2000029
 11735.5  87292 162548  38938    0  0  0  957.257  1682.36  1038.74    0  1461.5  1520.7  1813.41  1535.36  1586.1  1413  1783.73  1138.31    0  11328    0 2000028
 11745.3  87224 162875  38922    0  0  0  994.961  1778.38  1041.14    0  1629  1554.91  1904.69  1592.94  1657.82  2861.37  1861.6  1216.47    0  11315    0 2000029
 11755.2  87121 163207  38905    0  0  0  1012.91  1861.77  1007.09    0  1482.48  1560.3  1936.28  1577.88  1672  3457.69  1868.72  1189.7    0  11302    0 2000028
 11765.1  87026 163509  38866    0  0  0  966.193  1803.05  1019.88    0  1596.61  1654.95  1770.75  1629.88  1845.15  3673.11  1947.59  1169.82    0  11285    0 2000029
 11775.1  86933 163820  38848    0  0  0  1060.23  1903.84  1078.62    0  1658.51  1671.53  2046.22  1668.57  1900.6  1747.04  2080.3  1215.48    0  11269    0 2000029
 11785  86815 164064  38776    0  0  0  1078.56  1988.75  1099.48    0  1746.24  1687.6  2060.55  1815.23  1955.1  2239.82  2222.99  1216.27    0  11251    0 2000028
 11794.9  86716 164359  38761    0  0  0  1115.01  2148.79  1177.03    0  1833.37  1907.28  2275.84  1858.9  2021.68  3595.54  2254.96  1296.56    0  11242    0 2000028
 11804.8  86635 164681  38843    0  0  0  1199.29  2385.91  1333.42    0  1986.87  2086.86  2349.01  2068.01  2152.93  3121.05  2484.9  1335.2    0  11226    0 2000028
 11814.8  86143 164200  38701    0  0  0  1386.11  2627.44  1390.4    0  2119.77  2344.28  2601.14  2380.96  2436.84  2651.1  2673.84  1485.32    0  11165    0 2000029
 11824.7  86459 165284  38767    0  0  0  1591.1  2999.33  1577.49    0  2461.63  2604.75  2838.04  2738.76  2861.09  2346.37  3151.01  1586.75    0  11202    0 2000029
 11834.7  86350 165551  38738    0  0  0  1920.64  3593.32  1968.51    0  2988.18  3209.66  3448.8  3298.37  3498.06  2248.88  3755.44  1712.71    0  11179    0 2000028
 11844.6  86239 165739  38665    0  0  0  2524.74  4701.74  2489.55    0  4003.46  4296.73  4398.13  4276.84  4585  3296.28  5039.03  2284.37    0  11165    0 2000028
 11854.5  86131 165857  38643    0  0  0  3856.8  7162.59  3790.34    0  6251.56  6632.18  6847.15  6711.53  6999.93  2297.2  7596.65  3366.25    0  11146    0 2000028
 11859.5  85939 165522  38569    0  0  0  5377.81 10160.5  5226.27    0  8795.05  9397.71  9367.29  9388.72 10057.2  2707.89 10562.3  4605.42    0  11122    0 2000028
 11859.9  85872 165369  38584    0  0  0  5491.28 10330.3  5264.6    0  9149.89  9427.51  9629.83  9785.88 10122.1  2797.12 11234.6  4769.49    0  11113    0 2000028
 11860.4  85808 165253  38607    0  0  0  5576.1 10719.3  5657.47    0  9329.62  9857.93  9942.07  9969.94 10630.4  2560.72 11566.4  4974.9    0  11106    0 2000028
 11860.8  85758 165136  38581    0  0  0  5910.3 10985.7  5845.08    0  9508.83 10361.1 10414.9 10391.4 10858.8  3452.46 11907.8  4863.45    0  11102    0 2000028
 11861.1  85754 165116  38580    0  0  0  6292.2 11333.7  6019.05    0 10142.9 10595.9 10728.4 11044.1 11433.4  3418.82 12088.1  5257.88    0  11096    0 2000029
 11861.5  85795 165153  38557    0  0  0  6440.41 12034.3  6265.36    0 10405.3 10971.1 11356.4 11317.2 11874.8  3894.16 12881  5471.13    0  11100    0 2000028
 11861.9  85891 165332  38603    0  0  0  6609.57 12767.2  6482.67    0 11035.5 11695.3 11724 11797.7 12527.9  4348.66 13418.3  5560.32    0  11106    0 2000028
 11862.3  85952 165419  38559    0  0  0  6989.74 13094.2  6842.54    0 11558.1 12059.6 12218.9 12206.2 12937.4  2867.51 13755.6  5847.91    0  11115    0 2000027
 11862.7  85969 165451  38554    0  0  0  7252.64 13840.8  7046.83    0 11939.5 12858.6 12565.6 12777 13452.3  4894.78 14536.9  6072.68    0  11120    0 2000029
 11863.1  85975 165396  38586    0  0  0  7468.32 14339.5  7444.27    0 12302.4 13092.1 13129.9 13222.5 13728.8  3424.44 14982.5  6170.93    0  11122    0 2000028
 11863.5  85974 165381  38547    0  0  0  7973.72 14932  7731.18    0 13203.5 13887.9 13868 14217.3 14667.4  2251.64 16048.8  6617.95    0  11121    0 2000029
 11863.9  85977 165338  38528    0  0  0  8425.86 15664.7  8205.19    0 13896.7 14425 14554.2 14511.8 15453.1  1042.04 16774.8  6934.47    0  11119    0 2000029
 11864.2  85968 165292  38552    0  0  0  8517.03 16771.3  8666.94    0 14501.2 15424.7 15268.6 15504.5 16147.5  1409.77 17461.2  7310.7    0  11119    0 2000028
 11864.6  85964 165236  38506    0  0  0  9033.39 17724.9  8938.53    0 15371 16102.3 16073.5 16437 16916.2  1198.69 18521.4  7423.87    0  11116    0 2000028
 11865  85951 165156  38497    0  0  0  9686.95 18339.5  9501.2    0 16101.6 17249.4 17097.9 17245.6 18157.5  1075.26 19185.6  7847.17    0  11117    0 2000028
 11865.5  85951 165081  38473    0  0  0 10195.9 19655.3 10090.5    0 17118.2 17932.9 17754.1 18063.1 18829.6  1560.13 20476.1  8359.79    0  11117    0 2000028
 11865.9  85950 164998  38480    0  0  0 10900.7 21019.2 10825.1    0 17872.4 19185.9 18954.1 19553.7 20391.8  1258.81 21799.1  9108.92    0  11105    0 2000028
 11866.2  85937 164895  38469    0  0  0 11483.7 22303.3 11615.6    0 19160.6 20314.9 20298.7 20763.4 21650.7  997.1640 23429.8  9546.22    0  11075    0 2000029
 11866.6  85921 164762  38451    0  0  0 12106.2 23876.3 12164.1    0 20462.7 21627.4 21686.4 22233.1 22949.6  2515.69 24643.3  9897.58    0  11069    0 2000028
 11866.9  85907 164642  38445    0  0  0 13083.9 25379.3 13099.6    0 22096.7 23083.2 23089.1 23631.5 24561.1  2813.35 26448.5 10751.4    0  11065    0 2000028
 11867.3  85900 164475  38489    0  0  0 14448.6 27780.7 14098.9    0 23738.4 25261.1 24965 25676.3 26945.8  2401.74 28942.6 11814.5    0  11064    0 2000028
 11867.8  85894 164301  38411    0  0  0 15582.8 29847.7 15475.6    0 26333.8 27814.4 27639.5 28150.9 29451.2  2112.63 31599.3 12909.2    0  11063    0 2000028
 11868.2  85933 164190  38595    0  0  0 17189 32925.4 16848.8    0 28517.7 30484.3 30093.2 30527.3 32034  2627.18 34205.7 14013.7    0  11069    0 2000028
 11868.6  85931 163945  38575    0  0  0 18668.4 35898.3 18683.5    0 31434 33402.5 32652.8 33757.1 35068.9  4190.76 37771.6 15432.7    0  11069    0 2000028
 11869  85925 163645  38520    0  0  0 21034.6 40029.7 20906.6    0 35243.1 37104.9 36680.1 37490 39458.8  4212.18 41932 17090.5    0  11105    0 2000028
 11869.3  85915 163312  38521    0  0  0 23816.1 44700.8 23544.9    0 39566.3 41883.5 41051.6 42406.1 44436.2  4006.91 47703.7 19270    0  11109    0 2000028
 11869.8  85908 162753  38510    0  0  0 27080.6 51926.7 27241.7    0 46049.9 49420.9 47974.6 49053.4 51056.5  7206.44 54814.3 22172.8    0  11111    0 2000028
 11870.2  85897 162151  38419    0  0  0 31433.1 60743.4 31682.2    0 53593 56126.9 54835.2 57416.6 58582.6 12787.2 63668.1 25310    0  11111    0 2000028
 11870.6  85888 161312  38400    0  0  0 37612.6 71474.2 37388.3    0 63410.6 67665.1 64478.5 67557.1 69509.4 28432.5 74827.8 29598.2    0  11109    0 2000028
 11871  85878 160195  38384    0  0  0 45920 86669.2 45574.6    0 76691.2 82041.2 78628.8 81602.5 84959.8 11187 90725.9 36782.9    0  11109    0 2000029
 11871.4  85872 158734  38298    0  0  0 56287.8 105692 56052.9    0 94954.1 101409 96418 100569 104077 11028.9 112273 45556.5    0  11106    0 2000029
 11871.8  85862 156575  38203    0  0  0 70103.6 135108 71549.6    0 120321 127844 122916 128031 129443 12020.5 140330 56253.4    0  11108    0 2000028
 11872.2  85853 154156  38157    0  0  0 87889.2 166785 88576.3    0 148475 156891 150130 157161 159555 34655.7 172913 69691.5    0  11108    0 2000028
 11872.6  85840 151307  38164    0  0  0 109393 202031 108270    0 180382 190375 182999 190973 195821 34721.9 210564 88694.9    0  11103    0 2000029
 11873  85822 148344  38160    0  0  0 128669 239970 129131    0 215240 227440 219519 226138 232170 38590.7 250852 104455    0  11103    0 2000029
 11873.4  85814 145599  38044    0  0  0 145228 277868 149619    0 244810 260436 252016 257795 261491 50403.1 286734 119514    0  11102    0 2000028
 11873.7  85803 143259  38078    0  0  0 164528 308751 167059    0 273731 289479 279050 287743 293119 34252.8 318509 135929    0  11102    0 2000028
 11874.1  85782 141433  38085    0  0  0 178229 335273 180962    0 294951 312782 302763 311153 317193 115671 341833 147644    0  11100    0 2000029
 11874.5  85762 140488  38027    0  0  0 186723 349064 190834    0 307792 328257 316913 325419 331395 148547 358279 155536    0  11099    0 2000029
 11874.9  85732 139890  38054    0  0  0 192937 365048 197240    0 320847 339649 328291 337774 344708 34011.3 369795 163295    0  11091    0 2000028
 11875.4  85700 139274  38090    0  0  0 198084 377783 205057    0 332357 351737 341292 349874 355063 143273 382323 166437    0  11083    0 2000029
 11875.7  85630 138167  38041    0  0  0 210028 398769 216352    0 350320 372282 358389 371268 373954 92361.5 404637 176239    0  11079    0 2000028
 11876.1  85430 135915  38102    0  0  0 231207 430804 237095    0 381305 404788 389348 401701 408528 37214.6 438581 195818    0  11056    0 2000028
 11876.5  85074 132978  38079    0  0  0 251416 468124 259333    0 416254 438887 422511 435439 442392 67809.6 475927 212409    0  11012    0 2000028
 11876.9  84853 129886  38078    0  0  0 272140 509224 286107    0 453407 480023 463904 476091 475586 33435.9 518358 229810    0  10985    0 2000029
 11877.3  84727 127175  38199    0  0  0 296858 543801 306211    0 484289 514103 496495 508648 507762 29635.1 554025 247918    0  10968    0 2000029
 11877.7  84671 125620  38222    0  0  0 310692 569044 320145    0 505451 535871 518373 528303 527542 37490 575694 263259    0  10962    0 2000028
 11878.1  84689 128271  38228    0  0  0 311349 562532 319408    0 501284 528811 516700 522725 528992 33001.9 575463 262537    0  10923    0 2000028
 11878.5  84899 130205  38309    0  0  0 294773 545202 306340    0 485037 513948 500728 505853 507782 39032.4 551714 249989    0  10943    0 2000028
 11878.9  85115 133156  38309    0  0  0 273237 508497 285081    0 451499 478023 464047 473207 474831 40842.2 516148 231570    0  10985    0 2000028
 11879.3  85210 136327  38375    0  0  0 252875 470407 259948    0 416780 441522 424760 438431 442167 66775.4 474406 212502    0  10985    0 2000028
 11879.7  85267 139378  38432    0  0  0 227981 428312 233693    0 373227 399313 385397 397868 401485 85481.1 431596 193044    0  10988    0 2000027
 11880.2  85233 141824  38383    0  0  0 204557 388420 211535    0 341084 360931 349983 359345 363150 33119.6 395401 174959    0  10985    0 2000028
 11880.6  85212 143699  38461    0  0  0 187951 358311 193327    0 314105 332014 323281 331063 334402 150784 364272 160077    0  10982    0 2000028
 11881  85231 145231  38468    0  0  0 173966 333890 180058    0 291656 309578 305131 310372 312628 159479 343717 147969    0  10985    0 2000028
 11881.3  85277 146177  38412    0  0  0 168000 319285 171284    0 280695 297023 289428 295077 299967 140265 326799 141573    0  10984    0 2000029
 11881.7  85408 146952  38473    0  0  0 164097 310343 167515    0 273347 291140 283320 287143 294772 118217 319843 139873    0  11004    0 2000028
 11882.1  85552 147505  38507    0  0  0 158687 307021 164429    0 269070 285961 279371 283722 288081 39713.9 315537 134160    0  11017    0 2000028
 11882.6  85670 147933  38436    0  0  0 157952 303643 162848    0 265874 281877 277117 280614 284668 133820 310913 133074    0  11031    0 2000029
 11883  85707 148088  38473    0  0  0 159685 300723 163008    0 265996 282642 274899 279851 287748 141706 310845 135706    0  11035    0 2000029
 11883.4  85700 148108  38505    0  0  0 159064 302423 162603    0 265129 280100 274738 279321 285337 140497 308561 133035    0  11035    0 2000029
 11883.7  85700 148188  38469    0  0  0 156566 298860 161291    0 263627 278844 274716 279562 280042 138973 308443 131949    0  11033    0 2000029
 11884.1  85684 148225  38461    0  0  0 156562 297436 159175    0 263559 278871 272525 277489 280389 140338 306542 131848    0  11029    0 2000028
 11884.5  85675 148307  38494    0  0  0 155049 296525 159119    0 261265 277549 270611 276289 278902 127166 305493 130925    0  11033    0 2000027
 11884.9  85660 148370  38493    0  0  0 157527 295004 159566    0 260942 277042 270493 274691 280537 82596.3 305421 131526    0  11073    0 2000028
 11885.3  85653 148439  38499    0  0  0 156471 296255 158618    0 260573 276127 268832 275150 278191 26668.4 304045 131597    0  11069    0 2000028
 11885.7  85643 148622  38482    0  0  0 153705 292297 158105    0 258217 272703 267262 271592 275532 97507.5 301387 128609    0  11069    0 2000029
 11886.1  85631 148719  38473    0  0  0 151715 290857 156331    0 255338 270661 265153 270404 274288 59566.6 298302 127575    0  11070    0 2000028
 11886.5  85644 148884  38600    0  0  0 153718 288276 155095    0 255199 269585 262848 268215 272707 28767.6 297823 128514    0  11072    0 2000028
 11886.9  85613 148966  38469    0  0  0 151836 286265 154388    0 253668 267947 262641 268089 273349 119023 296378 128721    0  11062    0 2000029
 11887.3  85599 149057  38462    0  0  0 148888 284751 153227    0 251941 267587 259699 265273 269581 133109 294643 124793    0  11062    0 2000028
 11887.7  85588 149136  38438    0  0  0 146886 282932 152640    0 249820 263529 260773 264104 266236 119735 292012 122649    0  11063    0 2000029
 11888.1  85567 149202  38355    0  0  0 149356 283590 152623    0 251439 264696 258493 264162 268665 91491.5 291257 126087    0  11061    0 2000029
 11888.5  85546 149179  38386    0  0  0 149634 282043 152059    0 250138 263153 258406 263889 268898 105828 293774 125723    0  11056    0 2000028
 11888.9  85536 149226  38366    0  0  0 146817 282036 152233    0 249083 264534 258953 263053 264819 39398.3 290396 124047    0  11055    0 2000028
 11889.3  85512 149230  38319    0  0  0 149090 281214 151017    0 248518 263904 256585 263372 266568 83824.9 290700 124862    0  11060    0 2000028
 11889.7  85490 149223  38232    0  0  0 147238 281524 150038    0 247071 262152 256876 261277 264597 111678 288308 123283    0  11055    0 2000028
 11890.1  85474 149189  38205    0  0  0 147151 279421 150483    0 246793 261753 256274 260721 263485 124523 288535 122362    0  11047    0 2000028
 11890.5  85434 149105  38085    0  0  0 148922 281118 150908    0 247536 262310 256669 259928 265077 124278 290389 125807    0  11047    0 2000029
 11890.9  85404 149132  38010    0  0  0 146661 279967 149337    0 246589 261828 256068 260793 265397 24618.7 287940 124647    0  11043    0 2000029
 11891.3  85366 149083  37906    0  0  0 144557 280021 151418    0 247805 261866 256491 261090 263097 31077 287759 121996    0  11038    0 2000028
 11891.7  85314 149071  37846    0  0  0 147371 277711 150074    0 246386 260419 255025 260342 263774 37672.9 286644 124148    0  11035    0 2000028
 11892.1  85251 148980  37851    0  0  0 145778 277547 149612    0 245994 259191 254402 259188 263858 88761.6 286904 123534    0  11027    0 2000029
 11892.5  85144 148855  37884    0  0  0 145189 275922 147857    0 244534 257598 253069 257223 260866 65692.7 284355 120206    0  11015    0 2000029
 11892.9  85027 148769  37955    0  0  0 144419 274057 147840    0 243386 256774 252567 256879 259617 18440.3 285455 120213    0  11000    0 2000028
 11893.3  84818 148447  38058    0  0  0 144227 272819 146701    0 240570 255717 250614 254860 258763 34658.3 283369 120994    0  10971    0 2000029
 11893.7  84475 147937  38143    0  0  0 142206 271484 145463    0 239825 253770 249267 252878 257442 74466.6 280155 118416    0  10933    0 2000029
 11894.1  83771 146772  38238    0  0  0 141533 267524 143930    0 235329 250411 244527 249695 253588 14851.7 277822 118321    0  10848    0 2000029
 11894.5  82692 144988  38311    0  0  0 137075 262839 141046    0 231958 246112 241640 246150 250533 17201 272029 116203    0  10718    0 2000028
 11894.9  82074 143994  38318    0  0  0 133975 259058 139601    0 227776 241217 237665 240730 242637 33147.5 267588 111421    0  10643    0 2000029
 11895.3  82144 144245  38371    0  0  0 135690 257053 138660    0 227469 239924 235419 240863 242667 41280.5 266572 112166    0  10653    0 2000028
 11895.7  82746 145367  38534    0  0  0 136187 258784 138722    0 229082 242740 237772 242576 246254 17725.3 267348 114693    0  10725    0 2000029
 11896.1  83840 147417  38544    0  0  0 136488 259495 139803    0 228705 242024 237297 242528 247220 20514.4 268590 114181    0  10855    0 2000029
 11896.5  84825 149242  38590    0  0  0 136781 261344 140768    0 231129 245261 241082 245309 247295 13901.3 270141 113596    0  10975    0 2000028
 11896.9  85451 150431  38627    0  0  0 139574 263990 141394    0 233975 247222 242124 246302 251865 23402.8 273805 117380    0  11051    0 2000028
 11897.3  85682 150940  38674    0  0  0 139544 263072 141212    0 233903 245683 240441 244530 250079 78317.9 270689 116665    0  11077    0 2000028
 11897.7  85699 151052  38643    0  0  0 138054 261061 139601    0 230601 243259 238273 244059 247042 28619.8 269941 114670    0  11081    0 2000029
 11898.1  85691 151107  38636    0  0  0 135973 261530 140318    0 231158 245254 240347 244375 246818 26533.8 269576 114964    0  11078    0 2000028
 11898.5  85674 151171  38630    0  0  0 136682 258916 138897    0 228946 242522 235988 242346 246252 15443.5 269709 114369    0  11076    0 2000028
 11898.9  85652 151232  38657    0  0  0 134838 258687 138404    0 227560 241434 236953 240464 243901 42846.3 266333 112774    0  11076    0 2000028
 11899.3  85637 151275  38640    0  0  0 135214 256464 137146    0 226782 240622 234955 238661 242673 98739.2 265375 114172    0  11074    0 2000028
 11899.7  85618 151324  38660    0  0  0 133473 255121 136186    0 224139 236156 232879 236524 239542 73443.6 261170 111880    0  11071    0 2000028
 11900.1  85603 151553  38650    0  0  0 132483 253787 135810    0 223433 236977 233231 237208 239829 17737.7 263336 110795    0  11068    0 2000029
 11900.5  85589 151635  38631    0  0  0 132495 252482 134662    0 221510 234127 231420 234376 238098 110135 260101 110698    0  11064    0 2000028
 11900.9  85576 151723  38661    0  0  0 133853 251546 135237    0 222929 235394 231211 235283 239324 115442 260261 112027    0  11060    0 2000028
 11901.3  85563 151826  38663    0  0  0 132145 249218 132536    0 219516 231710 228152 231155 236515 47001.8 256036 110158    0  11013    0 2000028
 11901.7  85548 151902  38626    0  0  0 129144 245389 131616    0 217614 230520 227106 229849 233971 36730.4 255330 107589    0  11029    0 2000028
 11902.1  85540 152022  38635    0  0  0 128300 244682 131685    0 215032 228546 223114 227651 231221 85960.2 252158 107379    0  11045    0 2000029
 11902.5  85528 152115  38638    0  0  0 126465 243148 130289    0 214264 226582 222706 225882 228632 87628.1 250367 107047    0  11044    0 2000028
 11902.9  85518 152246  38654    0  0  0 127155 240123 128168    0 212508 224314 220616 224264 228397 63799.2 247969 106853    0  11046    0 2000028
 11903.3  85513 152377  38628    0  0  0 124679 237964 126599    0 210128 221085 218722 222389 224387 103182 245400 104750    0  11047    0 2000028
 11903.6  85506 152461  38652    0  0  0 124950 237646 126700    0 209332 223055 217368 222106 225651 95979.3 245106 104114    0  11043    0 2000029
 11904  85494 152621  38649    0  0  0 124130 236368 125763    0 208240 220705 216307 220374 224710 107238 244297 103390    0  11043    0 2000028
 11904.3  85484 152692  38633    0  0  0 122678 232287 124724    0 206774 217627 214807 217841 221296 111472 241275 102530    0  11041    0 2000028
 11905.3  85464 153051  38670    0  0  0 119773 227026 121244    0 201272 212955 208654 212797 216411 104532 236059 100511    0  11041    0 2000028
 11906.4  85438 153478  38631    0  0  0 114499 219534 118218    0 195696 206227 201698 205979 210417 100165 227922 96580    0  11036    0 2000028
 11907.5  85367 153781  38649    0  0  0 109782 214155 114006    0 189927 200429 194923 200410 200814 32588.2 221259 91511.5    0  11026    0 2000028
 11908.7  85314 154091  38631    0  0  0 108844 207178 110865    0 182522 194219 187559 194404 196738 77459.6 213591 90612.7    0  11020    0 2000028
 11909.8  85365 154489  38635    0  0  0 107540 203592 108788    0 180999 191645 185107 191110 195134 80323.1 209470 90848.8    0  11030    0 2000028
 11911  85323 154588  38664    0  0  0 104317 200244 107313    0 178373 188270 183126 188079 190716 21662.5 207802 87581    0  11023    0 2000029
 11912.2  85341 154749  38674    0  0  0 103799 199723 106459    0 177348 187597 181429 187942 188848 93019.4 206857 85761    0  11024    0 2000028
 11913.3  85346 154786  38683    0  0  0 105743 200639 106779    0 177041 187626 181992 187705 191799 93993.8 206086 88745.8    0  11025    0 2000028
 11914.6  85312 154752  38667    0  0  0 105968 201015 107323    0 178111 187334 181594 187047 190555 86641.6 206872 88006.4    0  11017    0 2000028
 11915.7  85295 154644  38600    0  0  0 105436 202934 107534    0 178885 188302 182840 188847 191203 69904.7 207572 87766.6    0  11018    0 2000028
 11917.1  85283 154525  38630    0  0  0 105541 203727 107837    0 180357 190195 185207 189877 192065 78032.5 209829 88062.7    0  11018    0 2000027
 11918.3  85267 154375  38635    0  0  0 108258 207248 109938    0 182715 193420 187892 193698 196410 95868.2 213673 90879.5    0  11009    0 2000028
 11919.7  85253 154242  38535    0  0  0 110678 209354 110617    0 185077 194925 190943 195801 199244 80903.6 215614 91623.9    0  11007    0 2000028
 11920.9  85242 154106  38556    0  0  0 110507 210422 112182    0 186395 197477 191309 197336 200195 98193.9 217951 92157.5    0  11008    0 2000028
 11922.3  85228 153951  38576    0  0  0 112541 213534 114002    0 189316 200979 194374 199616 204082 97165.3 220831 92963.7    0  11004    0 2000028
 11923.6  85203 153774  38587    0  0  0 112506 217208 116010    0 191526 201384 197684 203356 204831 92653.9 223920 94330.6    0  10996    0 2000028
 11925  85176 153571  38622    0  0  0 115685 218583 117401    0 194138 205828 200548 204918 209670 92669.8 226847 96333.7    0  10998    0 2000028
 11926.3  85151 153417  38602    0  0  0 118254 221277 118402    0 197417 208244 202634 207877 211828 34986 230704 98238.8    0  10994    0 2000029
 11927.8  85136 153257  38543    0  0  0 116696 224148 120005    0 197567 209364 204825 209815 212931 55572.7 231619 97542.9    0  10994    0 2000028
 11929.2  85123 153069  38599    0  0  0 115995 227157 121212    0 199810 212426 208420 211254 212270 104967 234608 96641.5    0  10986    0 2000028
 11930.6  85106 152825  38574    0  0  0 123114 231881 123597    0 205018 217007 212855 215950 220002 90680.5 239426 102619    0  10986    0 2000029
 11932.1  85084 152655  38505    0  0  0 123186 235497 125720    0 206615 218862 214703 218144 223794 47261.9 242590 102746    0  10983    0 2000028
 11933.6  85056 152444  38510    0  0  0 122803 236743 126889    0 208615 221206 217351 220760 222576 82504.2 243883 102267    0  10979    0 2000029
 11935.1  84993 152179  38550    0  0  0 125709 238509 127803    0 213176 223127 219917 223367 226338 66223.2 248212 104329    0  10968    0 2000028
 11936.6  84801 151682  38564    0  0  0 128502 243424 131114    0 214861 226993 222702 226644 231064 94095 251164 107915    0  10944    0 2000029
 11938.1  85028 151912  38542    0  0  0 131285 247906 133172    0 220073 231630 227801 231834 235079 103624 256182 109756    0  10972    0 2000028
 11939.7  85016 151721  38559    0  0  0 132272 252201 134210    0 222218 234613 229841 233490 238289 94486.6 259066 110753    0  10970    0 2000028
 11941.2  85005 151600  38571    0  0  0 132479 253634 136048    0 223651 237808 233121 236831 241223 70332.7 262773 112311    0  10965    0 2000028
 11942.8  84987 151537  38607    0  0  0 134662 255502 137381    0 226724 239508 234463 239208 243080 73074 263864 111971    0  10964    0 2000028
 11944.4  84959 151428  38604    0  0  0 135913 257788 138490    0 226770 241672 236192 241556 244030 78220.9 265908 113807    0  10964    0 2000028
 11946  84943 151383  38576    0  0  0 136844 258213 139687    0 229197 241533 237672 241471 246510 35690.3 267171 114821    0  10963    0 2000029
 11947.7  84919 151305  38595    0  0  0 135863 260117 139732    0 229131 241903 238227 241688 246075 113639 268092 114713    0  10962    0 2000028
 11949.4  84911 151351  38572    0  0  0 135813 259006 138784    0 228347 242055 236566 241117 242722 88102.7 267844 111803    0  10957    0 2000028
 11951  84901 151404  38669    0  0  0 138313 260788 139504    0 230433 244835 239017 243254 247318 73126.3 269570 116303    0  10948    0 2000029
 11952.7  84875 151348  38628    0  0  0 138149 261407 139402    0 231937 244167 239094 243583 250737 25783.2 271382 117599    0  10946    0 2000028
 11954.5  84858 151501  38609    0  0  0 135707 260438 139461    0 228669 243286 238372 243049 245469 67420.7 268123 112772    0  10941    0 2000029
 11956.1  84831 151517  38647    0  0  0 135023 258745 139250    0 229046 241738 237229 240635 245420 107301 266875 112269    0  10942    0 2000029
 11957.9  84814 151577  38624    0  0  0 137746 259892 138859    0 230681 242361 238474 243236 246519 83646.8 267356 115024    0  10938    0 2000028
 11959.8  84802 151652  38693    0  0  0 135553 259288 138795    0 227422 241564 235974 240740 245052 97588.5 266180 113778    0  10933    0 2000028
 11961.6  84774 151741  38647    0  0  0 135804 258812 138408    0 227174 240993 235901 239823 243663 102834 266001 112542    0  10925    0 2000028
 11963.3  84753 151785  38654    0  0  0 134302 257412 138270    0 227903 241894 237008 240302 243202 106680 266320 112307    0  10924    0 2000028
 11965.2  84731 151798  38670    0  0  0 136614 258601 138938    0 229083 241986 237018 241900 245327 122905 266883 113653    0  10921    0 2000028
 11967.2  84719 151892  38657    0  0  0 137410 257387 137816    0 227563 240042 235684 238933 244864 93029.7 265187 113611    0  10919    0 2000028
 11969.1  84686 151902  38667    0  0  0 135724 257682 138697    0 227830 242001 235995 241097 244655 117579 267804 114234    0  10914    0 2000028
 11970.9  84657 151968  38592    0  0  0 134658 257340 138160    0 227819 240121 236301 240613 241811 70662.1 265765 112950    0  10912    0 2000028
 11972.9  84635 152040  38561    0  0  0 134852 255308 138274    0 225975 239329 235060 239789 242862 120655 264751 112223    0  10908    0 2000028
 11974.9  84610 152092  38555    0  0  0 133789 256887 137674    0 226643 238433 235688 239651 242121 122889 264903 112666    0  10903    0 2000029
 11976.9  84572 152123  38288    0  0  0 135915 257038 136933    0 227564 239120 234611 239668 244494 123008 266178 114454    0  10896    0 2000029
 11978.9  84463 152082  38248    0  0  0 132779 253963 135817    0 224627 236867 232274 237298 240104 103065 263158 111909    0  10880    0 2000028
 11980.9  83295 150189  38351    0  0  0 130861 250248 133891    0 222356 234519 229392 232581 236712 116649 259008 109736    0  10742    0 2000028
 11982.9  84217 152009  38374    0  0  0 132337 250590 134009    0 220819 234742 229535 234890 237175 89921.3 258371 110113    0  10850    0 2000029
 11985  83881 151579  38430    0  0  0 131769 248984 133196    0 219843 233384 228322 233130 236456 105793 255874 110339    0  10814    0 2000028
 11987.2  84187 152403  38546    0  0  0 130036 246568 132371    0 217474 230345 225596 229282 235608 109922 254513 109305    0  10846    0 2000028
 11989.3  84372 152920  38506    0  0  0 128951 244483 130893    0 215758 227471 222954 228630 231299 25831.1 251307 107012    0  10867    0 2000028
 11991.4  84370 153095  38456    0  0  0 126225 243499 129532    0 215159 226890 222830 227553 229239 24367.5 251698 106381    0  10867    0 2000028
 11993.5  84355 153272  38495    0  0  0 129245 242162 129474    0 213669 226827 221587 226454 230029 54349.7 250695 107267    0  10863    0 2000028
 11995.7  84325 153299  38434    0  0  0 127348 240247 129220    0 213653 226152 221612 224967 229873 35254.3 248881 107556    0  10857    0 2000028
 11997.9  84300 153466  38443    0  0  0 124892 239365 129301    0 211861 223174 218517 223792 226217 105310 246471 103383    0  10856    0 2000028
 12000.1  84279 153546  38464    0  0  0 126068 239596 127763    0 210455 222810 218810 222170 226616 111006 247913 103393    0  10859    0 2000028
 12002.3  84263 153604  38418    0  0  0 127608 239260 127716    0 211993 224156 219394 223113 228001 109820 245931 106158    0  10856    0 2000029
 12004.5  84231 153647  38434    0  0  0 125705 238146 128320    0 210695 223534 219492 223511 227274 112885 246355 105398    0  10854    0 2000028
 12006.7  84200 153653  38469    0  0  0 123061 237834 127815    0 210143 222653 218383 223429 225509 115352 245760 103916    0  10848    0 2000028
 12009  84168 153680  38406    0  0  0 126617 240714 128453    0 212549 225583 221638 225231 227321 109720 248363 105239    0  10843    0 2000028
 12011.2  84143 153675  38376    0  0  0 125653 239063 127322    0 210546 221672 217712 222218 227259 41101.1 246563 105569    0  10840    0 2000028
 12013.5  84124 153678  38368    0  0  0 126463 240965 128458    0 212464 225369 219214 224660 227592 101477 247884 104840    0  10833    0 2000029
 12015.8  84096 153659  38319    0  0  0 126300 241660 128914    0 213940 227110 221396 225490 227992 87685.7 249260 104605    0  10832    0 2000028
 12018.1  84082 153615  38352    0  0  0 127607 241344 129807    0 213532 225143 220574 225938 230137 88429.7 248899 106678    0  10830    0 2000028
 12020.5  84039 153560  38348    0  0  0 128595 244221 130942    0 216126 229148 222690 226938 230638 60942.6 250888 106261    0  10819    0 2000028
 12022.8  83910 153393  38285    0  0  0 128681 245419 131150    0 215661 227106 223414 227740 231213 110530 252875 106486    0  10806    0 2000028
 12025.2  83904 153389  38276    0  0  0 129974 244288 131247    0 215962 227482 223716 228360 232375 27301.1 251929 108274    0  10781    0 2000029
 12027.7  83977 153531  38375    0  0  0 129621 245376 132030    0 216591 231507 225944 229424 232904 101184 254331 107905    0  10773    0 2000028
 12030.1  83879 153357  38296    0  0  0 127987 247267 132728    0 219145 230797 226610 232436 232416 43255.5 256813 106258    0  10761    0 2000027
 12032.5  83921 153496  38277    0  0  0 131678 248643 132976    0 220571 231657 226958 232788 235227 97298.9 255844 110114    0  10801    0 2000029
 12034.9  83888 153471  38285    0  0  0 130726 251397 133967    0 221166 234612 228417 233522 237494 108918 259586 111245    0  10796    0 2000029
 12037.4  83745 153205  38247    0  0  0 131163 249548 134429    0 221072 233961 228343 232195 237819 106419 258927 109480    0  10777    0 2000028
 12039.9  83701 153225  38279    0  0  0 131440 251925 134038    0 221347 235722 229850 234868 236155 122645 260898 109643    0  10772    0 2000028
 12042.4  83767 153384  38320    0  0  0 132736 250953 135185    0 224219 236287 230827 234591 240306 117247 260297 111550    0  10781    0 2000029
 12044.9  83812 153539  38229    0  0  0 133988 252299 135821    0 225093 235866 231118 235378 242438 119470 262455 112780    0  10788    0 2000028
 12047.4  83599 153226  38262    0  0  0 133228 252394 135488    0 223193 236844 231426 236760 240593 80495.5 261810 110589    0  10760    0 2000028
 12050  83725 153499  38266    0  0  0 131831 252155 135655    0 223960 235761 231860 236377 239387 117748 261828 110818    0  10774    0 2000029
 12052.5  83717 153578  38218    0  0  0 134486 254099 136653    0 223375 237303 232667 237727 241607 122856 262480 113465    0  10772    0 2000028
 12055.1  83685 153667  38245    0  0  0 133184 254596 137188    0 224809 237073 232638 238572 240526 103314 263467 111718    0  10761    0 2000029
 12057.8  83661 153702  38244    0  0  0 133545 253361 137193    0 224215 237165 232891 237184 242186 124015 263850 113981    0  10761    0 2000029
 12060.3  83638 153772  38174    0  0  0 133343 253805 136265    0 224456 239298 232802 237371 241123 91793 260285 112274    0  10754    0 2000028
 12062.9  83614 153805  38170    0  0  0 133635 254562 136393    0 224745 237779 232915 237055 241549 97536.9 261359 111536    0  10754    0 2000028
 12065.6  83549 153807  38103    0  0  0 133727 253825 136118    0 225132 237661 232944 237313 241541 80837.8 262740 112161    0  10748    0 2000028
 12068.3  83522 153875  38082    0  0  0 135014 254201 136288    0 225027 238252 231615 236199 241134 118885 261864 112584    0  10739    0 2000028
 12071  83504 153910  38050    0  0  0 132577 253354 136346    0 225571 238300 233616 237487 240950 114810 262581 111101    0  10738    0 2000028
 12073.6  83468 153927  38083    0  0  0 132107 254485 136147    0 224411 237856 232518 236718 239537 116063 262240 109753    0  10731    0 2000028
 12076.3  83441 154018  38033    0  0  0 133591 253784 136560    0 224630 237501 232760 237015 241099 55196.7 261983 111840    0  10728    0 2000029
 12079  83416 154046  38043    0  0  0 136269 255280 137076    0 226376 239339 235289 238322 243360 120900 263965 113493    0  10723    0 2000028
 12081.7  83388 154132  38064    0  0  0 133706 255909 136578    0 224879 237881 233235 238081 244127 107462 264127 112613    0  10718    0 2000029
 12084.5  83355 154154  37986    0  0  0 132221 256387 137112    0 226287 238297 233880 238851 240402 72088.8 263147 111023    0  10713    0 2000028
 12087.4  83319 154199  37981    0  0  0 134382 255127 137144    0 225314 237222 234472 236976 242846 115690 263781 112739    0  10710    0 2000028
 12090.3  83273 154278  37960    0  0  0 136637 255466 137953    0 225709 238360 234438 239057 243070 114164 264242 113971    0  10662    0 2000028
 12093.1  83224 154295  37938    0  0  0 132950 254182 135504    0 224882 237682 232973 235161 240548 50518.1 262423 111295    0  10698    0 2000028
 12096  83230 154424  37886    0  0  0 133110 253032 136050    0 223590 238272 231781 236178 238809 32260.4 263435 110824    0  10651    0 2000028
 12098.9  83188 154535  37882    0  0  0 132913 252795 135365    0 223936 236919 232173 234734 239203 19297.5 260682 110158    0  10688    0 2000028
 12101.8  83183 154652  37938    0  0  0 133594 253683 136792    0 224439 237663 232657 237673 242525 15182.1 264215 113682    0  10685    0 2000028
 12104.7  83145 154677  37926    0  0  0 133000 253406 136408    0 224857 238207 233444 237384 241428 19160.6 262317 111457    0  10679    0 2000028
 12107.7  83106 154755  37925    0  0  0 132167 253163 135700    0 222027 235947 231265 235598 237614 17038.8 263064 109848    0  10671    0 2000028
 12110.7  83070 154832  37904    0  0  0 133798 253573 136196    0 224732 236000 230983 236600 239364 18700.5 259778 111137    0  10667    0 2000029
 12113.7  82970 154770  37963    0  0  0 134216 251562 134787    0 222766 235522 229998 235194 239829 15663.2 259899 112091    0  10651    0 2000028
 12116.6  83037 155077  37952    0  0  0 132090 251291 134753    0 222329 235230 230146 234458 237274 15920.8 258599 110767    0  10660    0 2000029
 12119.7  83000 155185  37952    0  0  0 131536 251623 134649    0 222436 235075 230849 234497 237735 22863.5 260508 109756    0  10660    0 2000029
 12122.8  82945 155192  37894    0  0  0 132673 251699 134326    0 222209 234884 229240 234790 235366 14304.4 260074 109452    0  10651    0 2000028
 12125.9  82906 155202  37862    0  0  0 132524 248999 134308    0 222096 235918 229789 234310 237647 30434.9 258910 110945    0  10648    0 2000029
 12129  82856 155283  37787    0  0  0 133250 250672 134065    0 221696 234911 228412 232304 238225 23335 260072 111979    0  10638    0 2000027
 12132.1  82740 155139  37419    0  0  0 131262 251238 134891    0 222337 235205 229583 234584 237335 22227 258909 110308    0  10624    0 2000028
 12135.2  80832 151656  37764    0  0  0 128881 245246 130701    0 216770 228857 225574 229460 232418 21283.5 253211 107202    0  10400    0 2000028
 12138.5  82828 155582  37927    0  0  0 133028 251159 134589    0 221654 234498 230236 233306 238967 19010.9 259337 111415    0  10635    0 2000028
 12141.7  82741 155512  37659    0  0  0 133640 251554 134471    0 223036 234589 230526 234479 239722 17222.7 260216 111640    0  10626    0 2000028
 12144.8  82525 155199  37718    0  0  0 132960 250921 133535    0 222518 233695 229956 234279 237963 18646.1 257883 111208    0  10601    0 2000028
 12148  82627 155500  37813    0  0  0 132673 252310 135263    0 223492 234309 229973 233850 237288 17784.7 258942 111104    0  10611    0 2000028
 12151.3  82608 155578  37765    0  0  0 131219 253895 135644    0 223448 236673 230874 236506 238448 24068.9 261194 110698    0  10601    0 2000028
 12154.6  82583 155637  37754    0  0  0 135160 252860 136285    0 223527 237534 230585 236057 241289 11959.4 260977 112527    0  10599    0 2000029
 12157.9  82551 155664  37787    0  0  0 132553 253989 135294    0 224087 237437 231404 235243 239801 21413.1 262334 111749    0  10595    0 2000028
 12161.2  82509 155746  37670    0  0  0 133582 254378 137115    0 224438 238394 232916 236650 241059 38797 261577 111622    0  10587    0 2000028
 12164.6  82460 155770  37711    0  0  0 133048 254918 135750    0 224649 237980 233277 236641 239028 97595 262433 110289    0  10579    0 2000028
 12167.9  82386 155729  37679    0  0  0 134364 254141 135905    0 224923 237018 232874 238123 242342 24176.2 261783 113017    0  10568    0 2000028
 12171.3  82369 155801  37685    0  0  0 134970 253875 135765    0 224270 236437 232398 235825 242430 32242.9 262369 113186    0  10562    0 2000028
 12174.7  82331 155847  37646    0  0  0 131341 254421 136773    0 225273 237602 233395 237094 238908 71437.7 262236 110177    0  10560    0 2000029
 12178.2  82215 155789  37649    0  0  0 132056 254500 137065    0 224039 237635 233247 236898 238815 29338.4 262010 111051    0  10543    0 2000028
 12181.6  82277 156017  37675    0  0  0 135852 255513 137019    0 225990 238939 233911 237047 243002 17397.9 264316 114100    0  10549    0 2000029
 12185.1  82240 156050  37656    0  0  0 133192 255362 137795    0 226650 238739 234219 238940 243127 54030.8 264218 112674    0  10544    0 2000028
 12188.6  82201 156111  37632    0  0  0 131901 257241 137563    0 225902 239490 235397 238616 240299 51084 263120 110380    0  10536    0 2000029
 12192  82181 156225  37716    0  0  0 133230 255822 137217    0 225780 240500 234259 238243 241355 37680.4 263810 110744    0  10528    0 2000028
 12195.6  82174 156314  37642    0  0  0 136124 256575 137323    0 227428 239973 234894 238418 244906 93308 264472 114056    0  10524    0 2000028
 12199.1  81889 155913  37722    0  0  0 134867 256143 137483    0 226762 237966 232387 239035 242475 111095 262721 112559    0  10489    0 2000028
 12202.6  82099 156444  37638    0  0  0 132488 256237 136901    0 224980 239698 233917 239378 239926 112623 263032 110733    0  10523    0 2000028
 12206.2  82058 156525  37587    0  0  0 134240 255217 138365    0 226607 239950 234807 238053 241214 81984.8 264311 111568    0  10514    0 2000028
 12209.7  82007 156538  37671    0  0  0 135963 256943 137483    0 227409 240278 234930 238033 244344 65614.9 265921 114293    0  10508    0 2000028
 12213.3  81969 156610  37583    0  0  0 132906 255835 136821    0 226409 241092 235853 239143 242665 96691.7 265677 112862    0  10501    0 2000029
 12216.9  81936 156658  37551    0  0  0 134563 258153 137960    0 227034 240789 235541 239786 242718 47602.3 266715 112606    0  10497    0 2000028
 12220.5  81839 156655  37569    0  0  0 135587 256882 137220    0 227102 240743 236096 240816 242897 105909 265533 113869    0  10486    0 2000028
 12224.2  81801 156659  37468    0  0  0 135780 257631 138216    0 228103 241494 235654 240776 244272 123149 266136 113625    0  10480    0 2000029
 12227.8  81757 156705  37410    0  0  0 136086 258378 138432    0 226365 241306 236858 240536 244872 87904.3 265360 113463    0  10473    0 2000028
 12231.5  81683 156751  37433    0  0  0 135488 256423 137832    0 226718 240834 236250 240201 244937 86868.7 265594 113616    0  10460    0 2000028
 12235.2  81526 156568  37411    0  0  0 134506 256710 138224    0 227270 240635 236023 238801 243727 44578.7 266142 114011    0  10438    0 2000028
 12238.9  81550 156741  37296    0  0  0 134508 255265 138208    0 226249 239464 234904 239512 241858 29948.7 264622 111276    0  10443    0 2000027
 12242.8  81346 156543  37333    0  0  0 133986 256063 138200    0 226731 238479 234717 238466 240251 34464.5 263437 111934    0  10412    0 2000028
 12246.4  81302 156575  37166    0  0  0 136246 256122 137850    0 226145 240122 235733 239437 243894 113164 266572 114524    0  10406    0 2000029
 12250.3  80988 156086  36360    0  0  0 133706 255048 136511    0 224919 237363 232135 236665 239663 50638.2 263449 111902    0  10373    0 2000028
 12254.1  78853 152014  35914    0  0  0 129863 248890 133892    0 219826 232456 229259 233093 234205 117826 256832 108212    0  10119    0 2000028
 12258  80297 154967  37349    0  0  0 135130 253816 135624    0 224460 235863 232344 237293 239427 106086 262981 112589    0  10289    0 2000027
 12261.8  81662 157933  37466    0  0  0 138064 258017 138852    0 227825 241837 235156 239654 246244 114476 266788 115603    0  10450    0 2000028
 12265.7  81603 158014  37444    0  0  0 134292 257995 138058    0 227929 240914 235769 239473 242949 89482.2 266472 113710    0  10440    0 2000029
 12269.6  81561 158098  37575    0  0  0 134558 257358 138791    0 227434 240738 235007 239673 244491 19948.9 266139 113234    0  10436    0 2000028
 12273.6  81501 158110  37461    0  0  0 135904 256643 137484    0 226604 239535 235008 238363 243324 33449.9 264149 113472    0  10427    0 2000028
 12277.5  81442 158184  37492    0  0  0 135579 256806 138581    0 226605 238981 235086 239531 243735 115996 265035 114018    0  10416    0 2000028
 12281.6  81366 158183  37386    0  0  0 135931 256568 137296    0 227480 240474 236354 241109 244469 96131.6 265130 114145    0  10407    0 2000028
 12285.6  80779 157162  37404    0  0  0 132721 253630 136808    0 224453 237169 232722 237094 239802 29821.7 262519 110587    0  10337    0 2000028
 12289.6  81305 158350  37496    0  0  0 136610 257199 138239    0 227402 241495 235352 240939 245278 21642.3 266072 113573    0  10389    0 2000028
 12293.6  81263 158446  37522    0  0  0 135626 257299 137794    0 226307 238533 233951 240070 244401 23913.3 264385 114111    0  10386    0 2000028
 12297.8  81216 158507  37431    0  0  0 135654 257143 137875    0 228126 241670 235394 239725 245009 17125.9 264961 113391    0  10376    0 2000029
 12301.7  81112 158471  37344    0  0  0 133880 256840 138245    0 228241 240286 236059 239423 243981 33731 265828 112859    0  10362    0 2000028
 12305.9  81049 158498  37380    0  0  0 136491 257125 137580    0 227943 240588 236972 241121 242640 17079.6 264638 113006    0  10358    0 2000028
 12309.9  81019 158591  37360    0  0  0 135829 257642 138905    0 227910 240966 236228 240775 244226 78288 266953 113533    0  10354    0 2000028
 12314  80961 158648  37337    0  0  0 135337 256653 138157    0 226906 240554 235614 239749 244817 41559 265422 114470    0  10339    0 2000028
 12318.2  80916 158678  37370    0  0  0 134724 259824 139157    0 229678 241947 236217 241074 244631 64041.5 266037 112995    0  10334    0 2000028
 12322.3  80819 158678  37191    0  0  0 135778 257115 137403    0 227498 240844 235727 239639 244160 40461.3 265242 112634    0  10321    0 2000028
 12326.5  80774 158754  37234    0  0  0 136281 257565 138630    0 228334 241607 235840 240028 244846 40695.8 264684 113498    0  10319    0 2000028
 12330.6  80739 158837  37187    0  0  0 136068 258313 139188    0 227379 240942 235130 240368 245187 47327.4 265133 114539    0  10310    0 2000028
 12334.9  80691 158895  37240    0  0  0 136167 259118 138570    0 227867 243103 236984 241224 245779 17762.4 266602 114499    0  10305    0 2000028
 12339.1  80644 158967  37247    0  0  0 136257 259061 138878    0 228323 241351 235570 240891 244612 23372 265850 113360    0  10292    0 2000028
 12343.3  80611 159070  37323    0  0  0 135156 259379 138619    0 228290 240318 235825 241504 242787 29308 264893 113021    0  10292    0 2000029
 12347.6  80566 159141  37284    0  0  0 136293 257617 137736    0 227293 240649 235956 240074 244548 37541.3 265743 114200    0  10286    0 2000028
 12351.8  80553 159246  37289    0  0  0 134159 258997 139491    0 227173 241418 235667 240840 244894 92853.6 268542 113447    0  10285    0 2000028
 12356.1  80504 159378  37297    0  0  0 134506 257290 138286    0 227735 241908 236013 240989 244081 88345.4 266148 112619    0  10282    0 2000029
 12360.4  80461 159389  37263    0  0  0 134764 257647 139428    0 228517 243008 236514 242387 242550 16492.8 267978 112606    0  10271    0 2000028
 12364.6  80405 159456  37260    0  0  0 136400 258992 138679    0 227974 242224 236807 241458 246346 60494.3 266531 115497    0  10266    0 2000028
 12369  80355 159519  37268    0  0  0 136790 259308 139552    0 228669 243172 237835 242554 246414 121044 268581 115596    0  10262    0 2000029
 12373.3  80306 159613  37263    0  0  0 133846 258885 139652    0 226858 242895 235101 240496 242181 57592 267295 112058    0  10248    0 2000029
 12377.7  80250 159629  37186    0  0  0 133543 257369 137900    0 227147 241322 236790 240237 243063 27985 265038 110626    0  10238    0 2000028
 12382  80006 159328  37194    0  0  0 138839 259929 139278    0 229432 242398 237335 242151 247348 33321.9 268016 115338    0  10176    0 2000028
 12386.4  80106 159684  37185    0  0  0 134926 260036 138691    0 228621 242464 237089 241389 246417 46153 267407 112977    0  10177    0 2000028
 12390.9  80047 159715  37076    0  0  0 133231 259656 137845    0 227353 241173 235619 239453 242798 110042 266135 111330    0  10177    0 2000028
 12395.4  79958 159746  37057    0  0  0 133720 257949 139182    0 227356 242510 235667 241072 244101 111535 267066 112632    0  10197    0 2000028
 12399.8  79795 159602  37056    0  0  0 137151 257534 138989    0 228407 242535 237218 241989 246160 124085 266982 114908    0  10176    0 2000028
 12404.4  79792 159743  36881    0  0  0 136112 259482 139647    0 228120 242494 236100 240692 245300 57230.6 267916 114157    0  10173    0 2000028
 12408.9  79602 159544  36936    0  0  0 134420 258528 138528    0 227964 239519 236005 241061 241679 98345.1 267575 111473    0  10151    0 2000028
 12413.3  79725 159982  36955    0  0  0 135695 260814 139375    0 229980 243404 237681 241810 244225 121438 269301 113039    0  10162    0 2000028
 12417.9  79700 160095  36961    0  0  0 137607 258549 139866    0 229187 242289 237167 242020 246915 123751 266222 114776    0  10161    0 2000028
 12422.5  79658 160188  36942    0  0  0 134324 260671 138916    0 227938 242116 237977 241068 242908 121358 265608 112736    0  10148    0 2000028