File: example/Fe/As_200e_38_01.xdi
# XDI/1.0 GSE/1.0
# Scan-start_time: 2024-10-06T10:33:36
# Column.1: energy eV
# Column.2: I0_eh2
# Column.3: I1_eh2
# Column.4: IX_eh2
# Column.5: IR_eh2
# Column.6: c8
# Column.7: c9
# Column.8: fluo01
# Column.9: fluo02
# Column.10: fluo03
# Column.11: fluo04
# Column.12: fluo05
# Column.13: fluo06
# Column.14: fluo07
# Column.15: fluo08
# Column.16: fluo09
# Column.17: fluo10
# Column.18: fluo11
# Column.19: fluo12
# Column.20: fluo13
# Column.21: I0_eh1
# Column.22: I1_eh1
# Column.23: IX_eh1
# Mono.name: Si 111
# Mono.d_spacing: 3.134692
# Mono.notes: LNT cooled
# Beamline.name: BM08-LISA
# Facility.name: ESRF
# Facility.xray_source: Bending magnet
# ---------
# BraggEnergy I0_eh2 I1_eh2 IX_eh2 IR_eh2 c8 c9    fluo01   fluo02    fluo03 fluo04   fluo05   fluo06   fluo07   fluo08   fluo09    fluo10   fluo11   fluo12 fluo13 I0_eh1 I1_eh1 IX_eh1
 11725.6  87426 172532  38791    0  0  0  852.662  1503.02  927.95    0  1313.75  1317.94  1660.34  1268.09  1475.05  1170.16  1650.45  1071.03    0  11370    0 2000029
 11735.3  87368 172920  38823    0  0  0  852.44  1574.7  978.233    0  1320.18  1270.62  1634.66  1290.89  1494.15  1105.59  1669.99  1035.65    0  11362    0 2000028
 11745.2  87299 173256  38908    0  0  0  811.766  1504.36  874.06    0  1257.34  1273.14  1592.41  1360.79  1466.35  1196.36  1640.66  1110.71    0  11312    0 2000028
 11755  87198 173548  38932    0  0  0  873.124  1593.57  852.979    0  1259.16  1274.41  1608.31  1294.98  1420.93  1416.9  1648.8  1141.26    0  11294    0 2000028
 11764.9  87113 173870  38890    0  0  0  918.161  1632.66  838.841    0  1340.82  1395.06  1634.43  1391.14  1511.08  3732.82  1662.22  1050.67    0  11276    0 2000028
 11774.9  87019 174151  38829    0  0  0  941.164  1602.57  932.13    0  1336.38  1402.67  1673.41  1414.33  1631.65  3734.29  1711.08  1119.66    0  11261    0 2000028
 11784.8  86910 174411  38859    0  0  0  913.524  1675.91  972.09    0  1358.95  1434.06  1670.61  1414.89  1525.2  2662.86  1784.26  1052.52    0  11244    0 2000029
 11794.7  86810 174715  38826    0  0  0  863.197  1699.58  950.464    0  1397.68  1447.53  1685.53  1454.39  1560.24  1698.56  1776.62  1123.69    0  11229    0 2000029
 11804.7  86735 175028  38820    0  0  0  1009.46  1736.12  951.616    0  1484.82  1538.92  1787.23  1575.92  1652.6  2900.28  1892.55  1125.59    0  11214    0 2000029
 11814.6  86266 174545  38776    0  0  0  1023.49  1856.83  1076.35    0  1577.73  1644.24  1860.65  1669.68  1812.43  2413.22  2042.83  1139.48    0  11152    0 2000028
 11824.5  86556 175598  38850    0  0  0  1098.54  2116.72  1109.47    0  1811.58  1787.74  2102.95  1888.05  1972.34  2292.06  2169.11  1263.04    0  11184    0 2000029
 11834.5  86451 175883  38776    0  0  0  1268.2  2431.34  1296.15    0  1926.59  2090.15  2376.77  2159.05  2383.8  3465.48  2552.95  1365.73    0  11162    0 2000028
 11844.4  86338 176087  38749    0  0  0  1610.49  2923.89  1609.9    0  2534.91  2618.34  2948.41  2716.73  2848.96  915.932  3168.32  1655.8    0  11152    0 2000029
 11854.2  86234 176259  38727    0  0  0  2174.79  4238.42  2211.57    0  3632.9  3718.57  4184.07  3913.9  4060.48  1627.81  4599.18  2047.04    0  11135    0 2000028
 11859.2  86115 176187  38677    0  0  0  3123.78  5740.11  3056.62    0  4841.18  5240.71  5515.71  5314.17  5804.89  2791.94  6144.24  2747.5    0  11118    0 2000029
 11859.6  86025 176016  38709    0  0  0  3133.07  5988.92  3052.26    0  5096.67  5457.13  5784.84  5489.19  5817.48  2425.23  6358.34  2923.33    0  11110    0 2000028
 11860  85972 175953  38727    0  0  0  3218.29  6062.48  3134.09    0  5182.27  5424.09  5830.49  5610.02  5900.11  3402.53  6508.05  2891.67    0  11144    0 2000028
 11860.4  85910 175818  38672    0  0  0  3209.97  6447.76  3293.2    0  5338.01  5547.41  6027.86  5664.25  6092.42  2158.48  6640.4  3045.63    0  11137    0 2000028
 11860.8  85863 175702  38710    0  0  0  3448.46  6450.04  3416.4    0  5464.93  5968.82  6093.38  5950.52  6330.14  3049.92  6970.71  3081.01    0  11126    0 2000028
 11861.2  85876 175728  38718    0  0  0  3561.72  6776.36  3502.94    0  5960.43  6116.76  6335.98  6227.95  6616.1  1635.17  7158.65  3151.24    0  11128    0 2000028
 11861.6  85925 175800  38703    0  0  0  3768.59  7067.18  3604.83    0  6093.68  6315.96  6676.74  6477.32  6911.82  3364.33  7331.44  3282.29    0  11136    0 2000028
 11862  86018 175996  38760    0  0  0  3978.09  7276.58  3709.4    0  6271.89  6755.55  6975.97  6852.26  7103.82  3263.59  7629.58  3341.59    0  11147    0 2000029
 11862.3  86060 176086  38796    0  0  0  3943.38  7559.48  4047.11    0  6595.71  6902.47  7092.36  7017.39  7320.83  4496.34  8213.85  3480.15    0  11149    0 2000028
 11862.8  86077 176093  38717    0  0  0  4199.79  7796.12  4169.89    0  6951.69  7145.05  7585.92  7144.54  7621.34  3946.53  8346.99  3586.19    0  11153    0 2000029
 11863.2  86085 176108  38769    0  0  0  4477.36  8249.63  4387.56    0  7180.72  7551.36  7817.9  7789.9  8015.09  4295.77  8952.51  3868.2    0  11150    0 2000028
 11863.6  86087 176052  38732    0  0  0  4549.74  8793.22  4491.94    0  7578.02  7877.09  8279.63  8103.62  8348.28  3537.53  9185.29  4018.87    0  11147    0 2000028
 11863.9  86079 176047  38748    0  0  0  4986.55  9269.88  4746.08    0  8011.6  8377.91  8692.53  8546  8757.97  4147.07  9722.6  4168.26    0  11150    0 2000028
 11864.3  86084 176011  38794    0  0  0  5132.74  9619.74  4840.2    0  8384.51  8971.49  9007.11  8989.5  9213.98  3938.78 10138.5  4372.72    0  11152    0 2000028
 11864.7  86071 175957  38737    0  0  0  5285.62 10067.9  5336.6    0  8677.44  9173.74  9478.72  9327.83  9807.85  3896.13 10663.4  4545.46    0  11151    0 2000028
 11865.1  86065 175933  38714    0  0  0  5511.36 10728.3  5571.74    0  9169.44  9744.87 10128.6 10226.1 10517.1  4272.59 11315.1  4809.59    0  11149    0 2000029
 11865.5  86055 175877  38804    0  0  0  5993.62 11388.6  5872.13    0  9808.48 10347.1 10651.8 10544.3 10816.2  3904.57 12046.2  5062.21    0  11147    0 2000028
 11865.9  86057 175804  38700    0  0  0  6378.28 12063.5  6231.11    0 10244.5 11113.7 11193.8 11409.3 11692.7  2803.77 12776.4  5343.98    0  11144    0 2000028
 11866.3  86042 175753  38763    0  0  0  6766.27 12853.3  6660.36    0 11299.4 11780.3 12025 12135.1 12510.1  2535.39 13596.1  5723.04    0  11144    0 2000027
 11866.6  86020 175672  38798    0  0  0  7284.79 13669.3  6916.48    0 12129.8 12550.5 13007.6 12755 13159.2  3867.7 14532.7  6201.54    0  11143    0 2000028
 11867  86014 175602  38769    0  0  0  7785.21 14920.1  7624.05    0 12947.1 13533.2 13738.8 13974.6 14228.8  4799.06 15792.6  6440.87    0  11144    0 2000028
 11867.5  86004 175491  38746    0  0  0  8615.88 16369.1  8462.36    0 14136.5 15043.2 15154.1 15485.5 15583.6  5695.67 17209.1  7153.74    0  11143    0 2000028
 11867.9  86041 175500  38912    0  0  0  9306.44 17603.2  9113.72    0 15331.7 16309.3 16452.4 16572.5 16991.8  3615.33 18862.7  7428.25    0  11110    0 2000028
 11868.3  86029 175364  38817    0  0  0 10266.7 19705.7  9855.62    0 16718.5 18056.2 17878 18295 18851.7  6572.16 20898.2  8545.91    0  11133    0 2000028
 11868.6  86023 175252  38833    0  0  0 11163.6 21689.5 10945.8    0 18809.6 19728.8 19874.4 20408.2 20696.8  6506.05 22801.9  9391.09    0  11148    0 2000028
 11869  86027 175083  38832    0  0  0 12571.7 24027.8 12549.2    0 21172.5 22297.1 22552.7 22806.1 23354.6  6717.82 25691.6 10236.4    0  11147    0 2000027
 11869.4  86012 174855  38831    0  0  0 14731.2 27804.9 14261.6    0 24147.2 25320.8 25693.3 26313 26744.5  4405.4 29011.9 12008.4    0  11142    0 2000029
 11869.8  86004 174578  38815    0  0  0 16966.6 32332.4 16456.1    0 28073.1 29716.8 29512.9 30190.4 31699.8  9692.07 33891.1 13793.6    0  11140    0 2000028
 11870.3  85995 174232  38801    0  0  0 19568 37421.9 19198.3    0 32752.1 34879.3 34875.9 35356 36472.9  5456.29 39518 15972    0  11140    0 2000029
 11870.7  85986 173752  38752    0  0  0 23595.4 44941.6 23122.8    0 39369 41559.9 41455.9 42414.9 43733.3  3897.55 47095.4 19227.8    0  11134    0 2000027
 11871  85980 173135  38819    0  0  0 28330.2 54992.5 28433.4    0 48642.1 51247 50809.5 51877.5 53512.5  6718.68 57879.8 22939    0  11136    0 2000028
 11871.4  85970 172154  38763    0  0  0 36557.8 69816.8 36521.7    0 61328.4 65450.6 64229.3 66333.4 67510.3 10592.2 73665.2 29045.6    0  11137    0 2000027
 11871.8  85956 171000  38699    0  0  0 47032.3 89017 46548.5    0 78959.1 84125.3 81641.2 83778.1 87020.3 12435.2 93088 38235.8    0  11137    0 2000029
 11872.2  85956 169561  38709    0  0  0 58844.8 111539 58534.1    0 99446.1 105016 102297 105844 108240  7683.39 116377 47474.6    0  11134    0 2000028
 11872.6  85934 167881  38625    0  0  0 72256.1 139143 73103.4    0 124328 130077 127175 130895 132410 58537.1 144331 57917.4    0  11133    0 2000029
 11873  85929 166137  38616    0  0  0 87640.4 167484 88179.7    0 149159 156407 152164 156821 158743 76791.2 172684 70535    0  11135    0 2000027
 11873.4  85919 164509  38550    0  0  0 103066 192930 102247    0 170657 181051 175644 181035 185477 88614.6 198926 84291.8    0  11134    0 2000028
 11873.8  85899 163070  38530    0  0  0 113447 216263 114862    0 192183 201680 197578 203109 204872 25128.1 223203 93362.3    0  11131    0 2000028
 11874.2  85880 162308  38470    0  0  0 119421 230745 122960    0 203447 215154 211389 215713 216612 43508.2 237521 98486.5    0  11128    0 2000029
 11874.5  85859 162009  38500    0  0  0 121846 233761 125080    0 208810 219640 216725 221222 221371 40033.2 243684 102270    0  11090    0 2000029
 11875  85831 162008  38463    0  0  0 125246 238919 127227    0 212039 221702 219550 223340 226084 21832.4 246725 105352    0  11079    0 2000028
 11875.4  85787 161996  38477    0  0  0 126006 238906 127391    0 213262 222947 220805 224095 227397 18113.5 247009 105073    0  11095    0 2000028
 11875.8  85689 161712  38459    0  0  0 129662 247951 132135    0 220038 231252 228636 232351 234754 49847.4 256800 109077    0  11063    0 2000028
 11876.2  85484 160821  38527    0  0  0 135806 259894 138727    0 229214 241647 239004 243397 242857 113327 266804 112755    0  11035    0 2000028
 11876.5  85122 159328  38505    0  0  0 143999 277374 148639    0 245703 258757 255480 259479 259360 90605.3 286484 121232    0  10990    0 2000029
 11876.9  84929 157878  38609    0  0  0 158031 299424 159473    0 265459 277740 274327 278142 283246 148610 307686 133886    0  10967    0 2000028
 11877.3  84782 156677  38603    0  0  0 167148 319353 170552    0 279983 295599 292283 295647 298925 151063 327505 141017    0  10951    0 2000028
 11877.8  84745 156005  38666    0  0  0 169287 333855 178910    0 292937 308588 306055 309847 307800 165680 338745 143692    0  10947    0 2000028
 11878.2  84795 156193  38673    0  0  0 171911 332864 177544    0 292922 308009 303543 307728 307299 30940.3 339542 146063    0  10993    0 2000029
 11878.6  84980 157256  38681    0  0  0 169123 318592 171615    0 281399 296649 294148 297813 301948 153552 329079 143662    0  11015    0 2000028
 11878.9  85199 158863  38738    0  0  0 154612 299237 159859    0 263228 276729 274693 277572 280091 150725 306397 130550    0  11042    0 2000028
 11879.3  85286 160420  38705    0  0  0 141225 271597 145545    0 239772 252025 252211 254549 254686 138231 280895 119635    0  11054    0 2000028
 11879.8  85347 161813  38761    0  0  0 129509 247587 131957    0 219893 229466 229329 232260 233231 126571 255324 109354    0  11060    0 2000029
 11880.2  85296 162788  38782    0  0  0 118851 226782 120562    0 200002 210213 208806 211256 212643 115562 232978 99653.7    0  11057    0 2000028
 11880.6  85283 163662  38782    0  0  0 108977 208916 110227    0 185521 195374 191523 196401 197717 106444 215066 91991.4    0  11054    0 2000028
 11881  85303 164282  38846    0  0  0 103025 197854 104869    0 174316 183603 181505 184913 185930 100805 203473 86749.9    0  11053    0 2000028
 11881.3  85357 164750  38863    0  0  0 97107 190303 100494    0 167812 176030 173102 177594 177921 97672.6 195676 81802.6    0  11065    0 2000029
 11881.7  85488 165225  38831    0  0  0 96663.6 186084 97794.4    0 163917 173341 170210 174938 175584 91088.5 191905 80428.3    0  11082    0 2000028
 11882.1  85626 165624  38850    0  0  0 95047.5 184137 96776.6    0 162513 171367 167885 171776 174238 87836.2 188640 81162.5    0  11098    0 2000028
 11882.6  85754 165922  38863    0  0  0 94789.8 182613 96939    0 162622 170347 168125 172276 172338 93262.3 188532 80005.1    0  11111    0 2000028
 11883  85780 166048  38864    0  0  0 93938.5 182251 96034.9    0 161978 170562 165981 170419 171149 93175.3 186933 78051.7    0  11114    0 2000029
 11883.4  85776 166049  38886    0  0  0 94028.1 182304 95632.9    0 161498 168917 166251 170568 171158 89229.9 187230 77792.9    0  11115    0 2000029
 11883.7  85768 166041  38850    0  0  0 94876.5 181882 95511.2    0 161048 169050 166042 169713 172033 92364.7 186963 79236.2    0  11111    0 2000028
 11884.1  85745 166075  38865    0  0  0 94964.9 181739 95244.2    0 160347 168973 165127 169076 171871 93951.7 185626 79002.7    0  11110    0 2000028
 11884.5  85738 166130  38875    0  0  0 92442.5 179331 94578.2    0 159552 166336 162865 167598 169288 90293.9 183874 77780.4    0  11113    0 2000028
 11884.9  85736 166164  38824    0  0  0 92323 178714 93607.5    0 158046 165322 162815 167639 168283 88502.9 183590 76403.6    0  11111    0 2000029
 11885.4  85721 166192  38819    0  0  0 92917.5 178079 93876.1    0 157613 165784 162490 165952 167858 90463.8 183163 77437.5    0  11113    0 2000028
 11885.7  85712 166255  38886    0  0  0 92038.4 177720 93305.9    0 156651 164894 161407 165556 166950 90512.3 182418 77168.7    0  11112    0 2000029
 11886.1  85726 166355  38881    0  0  0 91746.8 174237 92547.9    0 155588 162183 160062 163778 167075 86430.8 178944 76740.2    0  11108    0 2000028
 11886.5  85696 166375  38848    0  0  0 90034.4 174798 92182.3    0 155005 162889 158252 163573 164319 83873.6 178790 75132.2    0  11105    0 2000028
 11886.9  85681 166431  38838    0  0  0 88500.3 172692 90380.3    0 153098 160538 157379 161741 162153 80829.5 177493 74148.8    0  11106    0 2000029
 11887.3  85666 166455  38797    0  0  0 89693.3 171629 90565.2    0 153008 159277 155656 160820 163170 84395.3 177349 74733.2    0  11104    0 2000028
 11887.7  85649 166562  38836    0  0  0 88988.6 170099 89490    0 150922 158118 155154 159707 161295 84267.4 174277 75117.1    0  11101    0 2000028
 11888.1  85637 166587  38811    0  0  0 87047.7 170149 89619.9    0 149214 157752 154063 157856 158630 84469.8 173656 72414.2    0  11099    0 2000028
 11888.5  85620 166572  38725    0  0  0 86784.7 170146 89123.8    0 150224 157594 155274 158718 159566 83019.8 174348 72578.5    0  11097    0 2000028
 11888.9  85602 166575  38774    0  0  0 88729.5 169976 88821.2    0 150448 157341 154872 158418 159322 85943.4 173853 73022.4    0  11094    0 2000028
 11889.3  85584 166563  38643    0  0  0 87832.4 169283 88755.4    0 149620 156432 154399 158467 160408 86189.6 174174 73514.3    0  11094    0 2000029
 11889.7  85560 166519  38685    0  0  0 88569 168339 88980.6    0 148776 156527 154174 159019 159339 83575.3 174299 73871.1    0  11089    0 2000028
 11890.1  85536 166493  38604    0  0  0 87082.2 167468 88450.1    0 148019 156507 153171 157921 158770 86569.6 172645 73118.4    0  11087    0 2000028
 11890.5  85509 166453  38475    0  0  0 87812.5 168966 88958.9    0 148602 156671 153319 157642 159008 84231.4 172943 73502.9    0  11079    0 2000028
 11890.9  85481 166365  38325    0  0  0 88193.9 169062 88350.7    0 149950 157443 153747 157958 159567 29514.9 173891 73379.1    0  11079    0 2000027
 11891.2  85451 166372  38331    0  0  0 87458.1 166671 88157.7    0 148799 155642 152072 155497 158362 79966.6 171085 73353.6    0  11073    0 2000028
 11891.6  85402 166278  38185    0  0  0 86425.2 167439 87806.5    0 148172 155032 152065 156486 157411 79063.5 171388 71462.6    0  11068    0 2000028
 11892  85331 166161  38197    0  0  0 85803.4 167547 87544.9    0 147446 155965 153515 157110 157247 85554.6 171874 71205.2    0  11031    0 2000028
 11892.5  85239 166024  38189    0  0  0 86363.1 165891 87298.6    0 147437 154682 151139 155403 156055 80707.8 170236 71837.5    0  11042    0 2000028
 11892.9  85101 165801  38271    0  0  0 87693.8 165537 86921.1    0 146911 154352 151256 155627 156980 76743.7 170288 72121.8    0  11024    0 2000028
 11893.3  84921 165490  38383    0  0  0 84044.8 163888 86656.2    0 145241 152766 149027 154055 153899 80619.9 168445 69633.7    0  11004    0 2000028
 11893.6  84608 164898  38482    0  0  0 83581.1 163210 85998.4    0 144267 151999 149101 152276 152572 80706 166965 70129.7    0  10967    0 2000028
 11894  83950 163618  38534    0  0  0 84158 161239 84316.6    0 143139 149093 146393 150442 152616 77175 163797 69758.9    0  10888    0 2000028
 11894.4  82872 161514  38616    0  0  0 82074.2 158448 82638.9    0 140064 147253 143943 148734 149753 79178.4 161887 68569.7    0  10755    0 2000028
 11894.8  82168 160196  38710    0  0  0 80781.6 155633 82134.7    0 137784 144789 142135 145513 146832 78678.8 159524 67255.3    0  10670    0 2000029
 11895.2  82176 160259  38779    0  0  0 81383.8 156531 82089.9    0 138079 144601 141816 145505 147072 79593.1 159397 67456.2    0  10671    0 2000028
 11895.6  82814 161566  38920    0  0  0 78861.5 155648 81287.1    0 136933 144131 141563 145212 145078 78152.5 159621 66148.6    0  10745    0 2000029
 11896  83774 163508  38874    0  0  0 80801.5 157139 82284.5    0 139258 146076 143323 146618 147591 77938.5 160257 67566.6    0  10862    0 2000028
 11896.4  84792 165596  38948    0  0  0 82536.4 158191 82719.5    0 139479 147072 143989 148533 150585 77662.2 162983 68702.3    0  10984    0 2000028
 11896.8  85471 166946  38975    0  0  0 81539.2 157957 83324.7    0 140849 147441 145307 148839 148587 74928.7 163667 67913.4    0  11065    0 2000029
 11897.2  85739 167512  38981    0  0  0 81357.8 159211 83225.1    0 140430 147897 144707 148577 149703 73104.1 164081 67461.9    0  11098    0 2000027
 11897.6  85767 167592  38972    0  0  0 83574.1 158619 82990.6    0 140224 148133 144709 148859 149828 80192.2 162740 68248.6    0  11101    0 2000028
 11898  85764 167628  38966    0  0  0 82111.3 158338 82711.1    0 140582 147062 144247 149135 150203 80227.5 162527 68350.8    0  11099    0 2000028
 11898.4  85745 167648  38994    0  0  0 80973.7 156830 82378.4    0 137981 145662 141785 145642 146367 77425.5 161308 67390.8    0  11098    0 2000028
 11898.8  85730 167644  38999    0  0  0 81001.5 156476 82738.8    0 138717 145232 142822 147007 148065 76901.3 160722 67925.5    0  11097    0 2000029
 11899.2  85709 167636  38952    0  0  0 79984.1 154931 81248.9    0 137212 144859 141016 145337 146153 67288.3 158914 66220.9    0  11098    0 2000028
 11899.6  85696 167658  38961    0  0  0 80055.6 155202 81235.5    0 137423 143691 141178 145608 145737 77067.1 158942 66117.6    0  11093    0 2000028
 11900.1  85671 167650  39001    0  0  0 79156.2 153133 81064.4    0 136980 143599 139230 143874 145959 50884.9 158088 66973.7    0  11089    0 2000028
 11900.4  85659 167690  38968    0  0  0 79473.2 153335 80979.5    0 136106 143514 139685 144591 145950 25405.9 157996 66363.2    0  11086    0 2000029
 11900.8  85642 167713  39009    0  0  0 77774.3 153034 80382.7    0 135161 141036 138835 142800 142822 65984.8 156753 65134.6    0  11086    0 2000028
 11901.2  85636 167751  39004    0  0  0 78873.1 151484 79478.3    0 134847 141028 138169 142223 142771 71652.1 155975 65875.7    0  11084    0 2000028
 11901.6  85625 167756  38953    0  0  0 78809.8 150218 79313.5    0 133667 141583 137237 140777 142466 72469.2 153989 65979.6    0  11081    0 2000028
 11902  85612 167786  38974    0  0  0 78610 150635 78462.7    0 133427 139738 137114 141125 142053 71458.7 154228 64935.7    0  11077    0 2000028
 11902.4  85605 167834  39000    0  0  0 76047.9 148038 77964.3    0 131189 138091 134673 139163 139842 69268.6 152207 63170.7    0  11083    0 2000028
 11902.8  85591 167873  38997    0  0  0 76808.8 147306 77405.6    0 130122 137662 134468 138650 139712 63500.4 151696 63568.7    0  11076    0 2000028
 11903.2  85582 167935  38986    0  0  0 75176.9 146708 77014    0 130135 136167 134050 137789 138717 72710.7 150874 62684.7    0  11080    0 2000028
 11903.5  85572 168176  38982    0  0  0 74209.8 144845 75460.4    0 127472 133990 131373 135219 136514 66205 148335 61434.3    0  11080    0 2000027
 11903.8  85571 168210  38960    0  0  0 75425.8 143793 75980.2    0 127244 133057 130497 134994 136027 54320.6 147534 62164.7    0  11079    0 2000028
 11904.8  85548 168396  39095    0  0  0 71612.8 140555 73730.5    0 123668 130964 128871 130780 131755 42507.1 143801 59558.5    0  11076    0 2000028
 11905.9  85515 168556  39034    0  0  0 70772.4 137144 71903.6    0 121010 127708 125090 128210 129141 66640.5 140900 58111    0  11070    0 2000028
 11907  85478 168692  39006    0  0  0 69994.6 133426 70380.8    0 118336 123784 121391 124673 126448 61948.1 137289 57762.3    0  11065    0 2000029
 11908.2  85408 168769  39031    0  0  0 67125.8 129733 67702.2    0 115059 120744 117890 121178 122956 63167.4 133311 55828.1    0  11053    0 2000029
 11909.3  85416 168944  38943    0  0  0 64787.9 128350 66623    0 113227 118858 116472 119433 121394 63089.9 131292 54062.1    0  11057    0 2000029
 11910.5  85417 169084  38995    0  0  0 65068.3 125556 65877.5    0 110694 116170 115159 117669 118510 62846.9 128369 53649.8    0  11054    0 2000027
 11911.6  85388 169137  39012    0  0  0 64288.7 124021 65017.4    0 111097 116086 113683 117453 117897 63645 128341 54018.1    0  11051    0 2000029
 11912.8  85425 169236  39025    0  0  0 64962 124109 65432.2    0 111287 116326 113968 117006 119496 64006.6 129156 54215.6    0  11054    0 2000028
 11914  85401 169199  38989    0  0  0 64639.4 124633 65641.9    0 110937 116964 114984 117985 118633 63190.8 129352 53500.4    0  11049    0 2000028
 11915.2  85382 169160  39034    0  0  0 64285 125153 65365.9    0 111048 116815 114471 117592 118780 61290.7 129586 53824.3    0  11049    0 2000028
 11916.5  85367 169119  38980    0  0  0 66963.6 127168 66998.9    0 113324 118570 116341 119360 121507 64833.7 130815 55019.5    0  11049    0 2000028
 11917.8  85356 169020  38964    0  0  0 67096.3 129468 67518.3    0 114951 120395 117677 121227 122951 65410.4 132870 55794.3    0  11045    0 2000028
 11919  85340 168900  38978    0  0  0 67120.2 131026 68630.3    0 115862 121563 118707 123001 123943 64468.4 134887 56162.4    0  11044    0 2000029
 11920.4  85326 168847  38952    0  0  0 68237 132661 69288.9    0 117356 123469 121155 124397 125073 66365.6 136635 56719.3    0  11043    0 2000028
 11921.7  85308 168795  38981    0  0  0 68654.4 133995 70330.8    0 118725 124519 122842 125079 126482 63856.7 138019 56557.3    0  11041    0 2000027
 11923  85283 168678  38975    0  0  0 70356.6 135943 70961.8    0 121446 127306 124744 127946 128996 68234.1 140673 58720    0  11034    0 2000029
 11924.4  85259 168559  38928    0  0  0 71437.4 136962 72407.2    0 121298 127797 124862 129251 129226 66332.1 141279 59038.2    0  11033    0 2000028
 11925.7  85235 168475  38936    0  0  0 71638.7 140263 73151.4    0 122845 130518 126457 130891 130993 67581.7 143526 58905.2    0  11030    0 2000028
 11927.2  85216 168324  39001    0  0  0 72306.9 141795 74158    0 125024 132353 128982 132914 133871 72050.1 145680 59787.1    0  11025    0 2000028
 11928.6  85193 168281  38933    0  0  0 74733.3 143764 75067.7    0 126954 133130 130865 133571 136069 72352.2 147623 61739    0  11023    0 2000028
 11930.1  85181 168158  38995    0  0  0 76368.5 145586 75971.9    0 128650 135678 133437 136972 139235 72202.3 150176 63311.5    0  11022    0 2000029
 11931.5  85153 168050  38982    0  0  0 76147 147539 77489.2    0 130568 137001 134260 137881 138804 60360.5 151743 63689    0  11019    0 2000028
 11933  85131 167907  38870    0  0  0 76800 150595 79471.7    0 132075 140090 136861 140944 140434 75522.2 154402 63326.7    0  11014    0 2000029
 11934.5  85106 167818  38917    0  0  0 78998.6 152088 80211.3    0 134513 140785 138501 142564 143864 74351.3 155577 65165    0  11010    0 2000028
 11935.9  84875 167300  38961    0  0  0 81751 153578 81430.1    0 136944 143477 140584 144446 147418 77321.4 158965 67073.2    0  10981    0 2000028
 11937.5  85055 167598  38890    0  0  0 80108.7 156201 81654.2    0 138297 145126 141359 146251 147429 77960.6 159609 66631.2    0  11000    0 2000029
 11939.1  85103 167632  38963    0  0  0 82351 158248 82450.4    0 140225 147188 144464 148147 149459 77317.9 162903 67988.9    0  11010    0 2000029
 11940.6  85087 167555  39011    0  0  0 83621.3 161099 84333.4    0 141373 148719 145749 150075 152543 81115.9 164803 69423.3    0  11009    0 2000028
 11942.2  85068 167488  38910    0  0  0 84304.6 162228 84988.2    0 144298 151150 147246 151981 153531 81475.5 166396 69857.1    0  11007    0 2000028
 11943.7  85040 167437  38964    0  0  0 84931.8 162802 85119.9    0 145144 152742 149457 153362 154248 82692.8 168139 70433.7    0  11004    0 2000028
 11945.4  85020 167429  39006    0  0  0 86081 162997 86583.6    0 145365 152739 149870 153473 155492 79945.1 168422 70849.3    0  11000    0 2000029
 11947.1  85003 167394  38936    0  0  0 85037.8 164942 85891    0 145905 153527 150427 153906 155620 80897.8 170309 70905.1    0  10998    0 2000029
 11948.7  84985 167413  38908    0  0  0 85296.1 165210 86268.5    0 145647 153544 150468 154628 155777 83514 170074 70132    0  10991    0 2000028
 11950.4  84977 167467  39040    0  0  0 86145.4 165757 86560.7    0 145787 153420 150347 154496 155694 82947.7 169671 71282    0  10988    0 2000028
 11952.1  84949 167489  38941    0  0  0 85916.4 164899 87330.4    0 146902 154774 151476 154274 156410 77200.2 169864 71227.8    0  10984    0 2000029
 11953.8  84930 167507  38940    0  0  0 83121.3 163544 86332.3    0 144986 153285 150554 154169 153217 33115.4 169257 69740.8    0  10982    0 2000028
 11955.5  84908 167555  38952    0  0  0 84835.1 165535 86546.9    0 145297 153506 150033 154824 154210 43346.6 169057 69943.2    0  10979    0 2000028
 11957.3  84886 167620  38957    0  0  0 86813.7 164441 86547.2    0 145812 154129 150531 153950 157186 79148.3 168567 71798    0  10977    0 2000028
 11959.1  84875 167676  38972    0  0  0 85002.5 165001 85512    0 145126 152643 148903 153588 154988 71199.8 168379 70649    0  10973    0 2000028
 11960.8  84851 167715  39002    0  0  0 83143.7 165180 86484.3    0 145314 153435 150475 154741 152750 81473.8 169028 68762.5    0  10970    0 2000028
 11962.7  84823 167728  38951    0  0  0 84450.2 163180 86022.6    0 143978 152017 148480 152674 153292 79535.5 167247 69935.5    0  10965    0 2000028
 11964.6  84805 167789  38945    0  0  0 84924.9 163588 85806.6    0 144646 152215 149544 153707 155126 79429.2 167113 71371.9    0  10964    0 2000028
 11966.5  84788 167830  38995    0  0  0 84506.9 163034 86480.4    0 144115 151556 149813 152874 153686 72903.9 167843 69886.4    0  10958    0 2000028
 11968.3  84759 167857  38928    0  0  0 84744.3 162564 86041.1    0 143998 152208 148193 152798 153426 28872.1 168257 69938.8    0  10952    0 2000028
 11970.2  84739 167895  38970    0  0  0 84624.6 163612 86689.1    0 145372 151797 149416 152702 154733 79349.2 167903 70656.1    0  10954    0 2000029
 11972.2  84711 167925  38964    0  0  0 85880.1 163533 85936.7    0 145297 152263 149722 153658 155005 79599.2 167929 71868.1    0  10954    0 2000028
 11974.1  84689 167994  38851    0  0  0 84957.1 163375 85373.8    0 145093 152102 149074 153172 154406 74807.8 166499 70733.8    0  10948    0 2000028
 11976.1  84656 168025  38781    0  0  0 84162.5 162791 85199.7    0 143816 151479 147524 152209 153303 77367.3 166034 70041.1    0  10945    0 2000028
 11978.2  84575 167958  38543    0  0  0 83327.5 160615 84650.1    0 143892 149777 146807 151712 152219 51680.7 165609 69829.7    0  10937    0 2000028
 11980.2  83750 166400  38613    0  0  0 82733.5 159539 83617.6    0 141101 147776 144609 149418 150792 73559.8 163841 68334.6    0  10834    0 2000028
 11982.2  83807 166671  38619    0  0  0 82393.5 158864 83793.2    0 140115 147607 143992 148935 150213 74640.6 163513 69057.6    0  10837    0 2000029
 11984.3  84088 167358  38753    0  0  0 82400.2 158296 82836.1    0 140474 147093 144589 148314 149735 74494.9 162663 68548.5    0  10870    0 2000028
 11986.4  84160 167665  38807    0  0  0 80699.8 157071 82908.9    0 138495 146168 143418 148144 148741 76034.8 160665 66548.1    0  10877    0 2000028
 11988.5  84374 168273  38863    0  0  0 81434.6 156150 82029.6    0 138596 145955 142578 146519 148439 74987 161161 67213.1    0  10903    0 2000028
 11990.6  84436 168555  38796    0  0  0 81390 155910 81626.2    0 137673 144620 141619 145008 148524 75434.8 159919 67949.2    0  10908    0 2000029
 11992.7  84415 168632  38747    0  0  0 79926.3 153559 81226.1    0 137395 144254 141090 145109 147873 73034.1 158844 66933.7    0  10907    0 2000027
 11994.9  84399 168696  38756    0  0  0 78701.3 153360 81056.9    0 136423 143391 140249 144567 143030 73974.7 157796 64954.3    0  10860    0 2000029
 11997.1  84356 168735  38740    0  0  0 79950 154033 80883.3    0 136044 143186 140027 144295 146049 65750.1 158867 66562.5    0  10860    0 2000027
 11999.4  84327 168784  38714    0  0  0 78905.7 153546 80323.7    0 135244 142615 139037 142940 143951 38673.8 156476 66463.2    0  10855    0 2000028
 12001.5  84303 168843  38692    0  0  0 79130.9 153390 80567.8    0 135737 142497 139054 143727 145089 67220.7 157304 66428.5    0  10852    0 2000028
 12003.7  84282 168862  38672    0  0  0 77871 152683 80103.9    0 134595 142483 139753 142984 143258 66574.4 157054 64569.3    0  10851    0 2000028
 12006  84255 168891  38643    0  0  0 79139 153247 80581    0 134891 142541 138643 142929 144887 74195.9 157894 65262    0  10848    0 2000028
 12008.2  84224 168934  38662    0  0  0 80405.6 153177 81133.5    0 136271 143009 139573 143992 145422 74262.5 157314 66225.1    0  10870    0 2000028
 12010.5  84195 168909  38654    0  0  0 80666.2 154008 81537.8    0 136602 143142 140242 144436 146331 74888.9 158280 66151.4    0  10877    0 2000029
 12012.8  84165 168932  38600    0  0  0 79829 155730 81815.9    0 137515 144088 140567 145186 146667 75673.9 159068 66922.3    0  10868    0 2000028
 12015.1  84144 168933  38643    0  0  0 80263.1 155464 81134.4    0 137280 144142 140924 145304 146925 75416.1 158844 67064.8    0  10869    0 2000028
 12017.5  84101 168865  38610    0  0  0 81167.2 157043 82268.2    0 138940 145326 142322 146233 147244 75138 160164 67579.6    0  10867    0 2000027
 12019.8  84082 168902  38558    0  0  0 81567.6 156105 82151.8    0 139041 146078 142359 147580 148316 76042.6 161773 67675.7    0  10865    0 2000028
 12022.2  84033 168844  38552    0  0  0 81670.4 156702 81997.1    0 138888 146834 143199 147503 149545 76383.1 162658 68799.4    0  10853    0 2000028
 12024.5  83827 168464  38547    0  0  0 82169.5 157145 83088.9    0 140389 147829 143565 148330 149862 76965.5 163183 69061.6    0  10828    0 2000029
 12027  84002 168885  38596    0  0  0 83018.1 159398 83723.5    0 141763 147960 145862 150041 150338 76736.9 163606 68533.6    0  10850    0 2000028
 12029.4  83910 168810  38611    0  0  0 83844.3 159292 83198.8    0 141798 148112 145043 149644 152921 70997.6 164523 69730.9    0  10837    0 2000029
 12031.8  83941 168906  38599    0  0  0 84136.7 160236 84590.5    0 142589 149897 146029 150345 153198 76602.4 165141 70803.8    0  10842    0 2000028
 12034.2  83916 168891  38537    0  0  0 83466 162143 84452.3    0 143100 150271 146600 151613 153527 70818.5 166215 70280.2    0  10839    0 2000028
 12036.7  83872 168874  38542    0  0  0 82806.9 161667 85146.1    0 143590 150606 146636 152165 151307 74446.5 166725 68770.5    0  10832    0 2000029
 12039.2  83689 168589  38572    0  0  0 84256.4 162426 85544.7    0 144170 152078 148179 152096 154333 76264.8 167058 70559.3    0  10806    0 2000028
 12041.7  83645 168596  38562    0  0  0 85227.1 161610 85220.7    0 144255 151149 148232 151965 155041 51666.2 166773 71321.5    0  10800    0 2000028
 12044.2  83840 169075  38526    0  0  0 83168.1 163206 85646.6    0 145196 151437 148568 152547 153115 75985.4 166848 69178.4    0  10822    0 2000029
 12046.7  83698 168862  38520    0  0  0 84544.1 163451 85998.8    0 144697 151694 148343 152661 153781 81239.3 166972 69695    0  10805    0 2000028
 12049.3  83722 168981  38561    0  0  0 85408.3 163170 86104.6    0 145036 151897 148752 152580 155790 72498.2 167064 70977.6    0  10809    0 2000029
 12051.8  83747 169133  38544    0  0  0 85516.6 164231 86279.7    0 145155 152885 148921 153291 155131 57210 167805 71003.5    0  10813    0 2000028
 12054.4  83710 169181  38511    0  0  0 84159.6 163988 85998.2    0 144887 151591 148736 153663 155413 54907.3 167617 70349.7    0  10809    0 2000028
 12057.1  83689 169270  38483    0  0  0 85834.1 165215 86833.9    0 145906 153491 149605 154356 156564 72909.8 169292 71399.9    0  10803    0 2000027
 12059.7  83663 169287  38553    0  0  0 85290.2 164799 86363.5    0 146116 153170 149786 154090 154586 79452.1 168360 70557.6    0  10800    0 2000028
 12062.3  83643 169357  38420    0  0  0 86072.5 165029 87026.9    0 147622 154193 150668 155807 157308 65411.8 170938 71810.4    0  10796    0 2000028
 12065  83585 169337  38422    0  0  0 85113.9 164995 86691.8    0 146479 153848 150128 155512 156197 48022.1 169449 71657.5    0  10788    0 2000028
 12067.7  83561 169398  38365    0  0  0 85124.5 164216 86421.1    0 146199 154294 149145 154341 156948 29295.8 169703 71618.9    0  10780    0 2000028
 12070.4  83537 169428  38324    0  0  0 85033.2 165154 86377.7    0 146326 154632 149594 154885 156011 56949.6 170194 71243.5    0  10775    0 2000027
 12073  83492 169468  38339    0  0  0 85711.1 165629 87469.2    0 144742 153003 149307 153692 154757 40790.8 168149 70639.2    0  10773    0 2000028
 12075.7  83475 169523  38302    0  0  0 85724.8 164791 85860.4    0 145848 153554 150325 154092 156537 57941.5 168872 72396.6    0  10771    0 2000027
 12078.4  83445 169573  38285    0  0  0 85801.3 165113 86789.2    0 145663 153674 149943 155388 156501 55596 170443 71306.8    0  10767    0 2000028
 12081.1  83425 169621  38260    0  0  0 84239.8 164847 87485.8    0 146247 153986 151119 154836 154646 72279.5 170256 69553.4    0  10765    0 2000028
 12083.9  83382 169676  38249    0  0  0 86856.1 165045 87231.4    0 146002 153625 149756 155125 156149 61488.2 169491 71550    0  10764    0 2000028
 12086.7  83346 169747  38219    0  0  0 86063.3 165762 86698.5    0 146842 153674 150682 155189 156573 77354.4 169858 72643.9    0  10759    0 2000028
 12089.6  83315 169749  38223    0  0  0 85480.2 165604 86909.6    0 146559 153417 150607 154679 155699 75627.4 169677 70724.8    0  10760    0 2000027
 12092.5  83218 169701  38229    0  0  0 84990.8 164755 86879.6    0 146953 154641 150953 155628 156626 74731.6 170015 71460    0  10748    0 2000028
 12095.4  83230 169848  38151    0  0  0 86243.1 165140 87822    0 145972 153855 150317 154560 157224 61317.9 169493 72188.6    0  10746    0 2000028
 12098.4  83204 169922  38148    0  0  0 86539.3 165714 86736.9    0 146936 154079 151160 155776 157308 78950.4 170605 72076.8    0  10741    0 2000029
 12101.2  83183 170012  38215    0  0  0 84784.1 164225 87185.6    0 145714 153457 149769 155078 155574 78616.5 169633 71244.1    0  10736    0 2000028
 12104.1  83146 170061  38144    0  0  0 85178.8 164625 86542.4    0 146532 153638 149913 154684 155029 63210.7 169575 71584.4    0  10729    0 2000029
 12107.1  83118 170138  38163    0  0  0 85625.3 165088 86957.6    0 146281 154850 150079 154252 156085 43090.1 169182 71387.6    0  10728    0 2000028
 12110  83073 170167  38116    0  0  0 84530.6 165163 86957.2    0 145446 153448 150009 154029 154803 57590.5 169912 70775.1    0  10717    0 2000028
 12113.1  83030 170239  38188    0  0  0 84720.9 164258 86648.5    0 144778 152696 150245 154458 155145 72406.6 169443 70933.5    0  10710    0 2000028
 12116.1  83022 170313  38122    0  0  0 85725.1 164919 87590.1    0 146458 153997 150345 154678 156117 22264.4 169017 72008.6    0  10709    0 2000028
 12119.1  83000 170391  38122    0  0  0 85492.3 164559 86901.7    0 146217 153481 149568 154591 155308 60651 169925 69698.9    0  10704    0 2000028
 12122.2  82940 170422  38008    0  0  0 84931.3 165286 86410.1    0 145011 152517 150064 154624 155496 29105.3 169263 70873.7    0  10697    0 2000028
 12125.2  82899 170449  38013    0  0  0 86107.7 164425 86407.3    0 145418 153514 149491 154488 156482 77665.2 169442 71511.5    0  10688    0 2000027
 12128.4  82848 170462  38003    0  0  0 85604.7 165064 86778    0 146143 154063 150545 154666 156289 72757.2 170023 71275.9    0  10683    0 2000029
 12131.6  82758 170364  37565    0  0  0 84655.7 164078 86495.2    0 145756 152976 149292 154381 155371 76902.3 169473 70089.6    0  10670    0 2000028
 12134.6  81472 167767  37846    0  0  0 83566.1 162364 85287.5    0 143325 150979 147221 150876 152213 76760.2 165601 69043.8    0  10520    0 2000028
 12137.8  82811 170763  38094    0  0  0 86550.7 166112 87215.5    0 146384 155020 150370 154907 157548 80750.9 171045 72517.2    0  10679    0 2000029
 12141  82742 170734  37917    0  0  0 85609.9 164541 86849.7    0 146818 153740 149547 153582 156946 79330.8 169076 71182.4    0  10666    0 2000028
 12144.3  82643 170637  37874    0  0  0 84405.2 165009 87524.4    0 147031 154463 151118 154808 154898 82224.1 170603 70278.3    0  10651    0 2000029
 12147.5  82572 170599  37952    0  0  0 85766 165665 87665.8    0 147624 154585 151218 155983 156946 79099.3 169943 71421.2    0  10640    0 2000028
 12150.6  82605 170803  37896    0  0  0 87264.3 166450 87798.4    0 146309 154236 150256 155464 158531 82453.2 170888 72249.1    0  10643    0 2000028
 12154  82584 170875  37849    0  0  0 87405.7 166355 87598.9    0 147189 156034 150845 155535 157557 80398.8 171024 71536.5    0  10638    0 2000028
 12157.3  82545 170961  37883    0  0  0 85486 165926 87176.5    0 146988 154949 151282 156113 155128 75938.9 170061 71055.1    0  10632    0 2000028
 12160.6  82498 170946  37795    0  0  0 86206 165605 87345.3    0 147713 154523 151934 155956 156434 82930.3 170514 71285.6    0  10626    0 2000028
 12163.9  82461 171010  37744    0  0  0 87517.2 167855 88335.6    0 148459 156092 152808 157093 159024 82819.6 172660 72802.4    0  10624    0 2000028
 12167.4  82416 171033  37756    0  0  0 88008.2 166509 88629.2    0 148748 155765 152150 157051 159551 83835.3 171695 73021.9    0  10620    0 2000028
 12170.7  82357 171054  37753    0  0  0 85749.8 168113 88044.2    0 148967 156743 153669 157794 157388 84739.9 171850 71630.3    0  10613    0 2000029
 12174.1  82332 171124  37707    0  0  0 87357.1 166968 88268.5    0 148320 155459 152116 157922 158311 70357.1 171811 72530.5    0  10612    0 2000028
 12177.6  82272 171133  37756    0  0  0 87701.3 167187 88274.5    0 147871 155800 152741 155623 159072 70637.2 172366 73104    0  10600    0 2000028
 12181  82271 171282  37766    0  0  0 87739.2 167068 88482.4    0 147736 154484 152083 156227 158472 19909.9 172345 72465.5    0  10595    0 2000029
 12184.5  82229 171351  37675    0  0  0 86737.2 167606 88281.1    0 147334 155479 152622 156687 157737 70748.9 171778 72504.3    0  10547    0 2000028
 12188  82188 171388  37754    0  0  0 88003.8 169486 88062    0 149649 156805 152329 157900 159678 47524.7 173202 72806.2    0  10538    0 2000028
 12191.4  82169 171473  37761    0  0  0 86979.4 168061 88800.1    0 148964 157103 153642 157034 158885 19781.8 173149 72733.7    0  10536    0 2000028
 12195  82126 171492  37663    0  0  0 88159.6 167659 89242.6    0 149331 158038 153968 157676 160771 56374.5 172693 72891.8    0  10530    0 2000028
 12198.6  81847 171057  37718    0  0  0 86083.1 169372 88755.9    0 148582 156707 152897 157513 158198 11877.6 173698 72017.2    0  10499    0 2000029
 12202  82073 171672  37738    0  0  0 87865.7 168814 89027.8    0 148740 157595 154673 157827 160564 17465 173119 73147.8    0  10522    0 2000029
 12205.6  82032 171741  37624    0  0  0 88087.2 168966 89090.9    0 150198 158280 154053 158674 159878 53123 174153 72891.5    0  10517    0 2000028
 12209.2  81991 171776  37661    0  0  0 88450.3 169187 89910.9    0 150795 158843 154361 159413 161358 83633.8 174446 73664    0  10532    0 2000028
 12212.8  81942 171832  37666    0  0  0 88689.4 170122 89562    0 150387 158721 155161 159178 161081 74089.2 174382 74115.9    0  10547    0 2000028
 12216.5  81908 171886  37601    0  0  0 87883.7 169525 89404    0 150154 158634 153959 158968 159775 76801.4 173836 73876.8    0  10537    0 2000027
 12220.1  81825 171878  37550    0  0  0 86697.9 170378 89050    0 149850 157568 154029 158728 158861 71583.8 173925 71888.1    0  10525    0 2000028
 12223.7  81786 171962  37475    0  0  0 89629.3 169749 88972.4    0 151538 157922 153447 159278 160416 73356 175435 74159.4    0  10520    0 2000028
 12227.4  81741 171966  37385    0  0  0 87869.7 169854 89828.3    0 149852 157792 154377 158694 161068 26445.8 174698 73673.7    0  10517    0 2000029
 12231.1  81667 171994  37353    0  0  0 87692.7 170499 89896.3    0 150925 158913 154715 159706 160837 30850.7 174365 72593.1    0  10505    0 2000028
 12234.8  81529 171864  37354    0  0  0 86060.9 168928 89348.7    0 149080 157829 153679 158431 157024 22933.8 172625 71353    0  10488    0 2000028
 12238.5  81542 172008  37212    0  0  0 88490.5 169218 89642.3    0 150819 158511 154083 158514 161521 44018 174392 73768.9    0  10487    0 2000029
 12242.4  81280 171617  37243    0  0  0 88143.7 168588 89221.4    0 150043 158020 154905 158227 161191 21151.5 174084 73376.7    0  10454    0 2000028
 12246.1  81288 171782  37149    0  0  0 87340.6 168805 89033.9    0 149839 157377 153513 158815 158560 66748.2 174438 71763    0  10433    0 2000028
 12249.9  81010 171341  36448    0  0  0 85971.9 168863 89586.5    0 148939 156824 153035 157675 157686 42939.6 173151 70829.4    0  10382    0 2000028
 12253.7  79487 168149  35516    0  0  0 87748.7 166143 87863.9    0 146881 154741 150378 155728 156908 33530.5 168963 72422    0  10200    0 2000028
 12257.5  79172 167618  37127    0  0  0 85251.2 165451 87026.1    0 146370 153444 150433 154832 154984 54306.5 169001 71107.6    0  10166    0 2000029
 12261.4  81616 173116  37310    0  0  0 86868.7 170237 90141.6    0 150455 157992 155564 159501 159427 24801.9 175814 71965.5    0  10453    0 2000028
 12265.3  81580 173240  37272    0  0  0 88013.9 170714 89412.9    0 150127 159059 154427 159414 158870 40887.1 174564 72260.2    0  10444    0 2000028
 12269.2  81528 173294  37349    0  0  0 89550.6 170172 90460.5    0 151657 159524 155572 160109 161825 14094.8 175289 73916.3    0  10439    0 2000028
 12273.2  81454 173295  37316    0  0  0 88895.7 170101 89535.1    0 149806 157968 155080 159348 160928 17331.8 173620 73808.4    0  10433    0 2000028
 12277.1  81400 173348  37276    0  0  0 87603.2 169344 89870.3    0 150785 158386 155475 159602 160204 19579.2 175136 73397.1    0  10466    0 2000028
 12281.1  81323 173335  37205    0  0  0 88381.3 170304 90098    0 151722 159839 154621 160290 160523 35875.9 175849 73580.6    0  10455    0 2000028
 12285.2  80990 172767  37220    0  0  0 88881.7 170326 89743.3    0 149753 157850 153442 158317 160577 28049 174333 73418.3    0  10416    0 2000028
 12289.2  81263 173525  37220    0  0  0 87845.1 169918 90132.4    0 151136 158034 155269 160417 160251 41212.7 175573 72729.8    0  10447    0 2000028
 12293.2  81219 173615  37311    0  0  0 89453.7 171140 90137.4    0 151586 159492 155491 160381 161668 17489.9 175589 74492.4    0  10443    0 2000028
 12297.3  81173 173678  37256    0  0  0 88619.1 170474 89514    0 151827 159104 155021 160898 162052 19536.6 174800 74526.1    0  10437    0 2000029
 12301.3  81071 173631  37105    0  0  0 88156.9 169987 90208.2    0 151312 158750 154883 159920 160753 34179.1 174626 73394.1    0  10423    0 2000028
 12305.5  80988 173630  37127    0  0  0 89375.6 170948 89761.6    0 150618 159295 154964 159683 162081 32881.8 175788 74389    0  10409    0 2000028
 12309.5  80980 173744  37118    0  0  0 89399.6 170951 90588.4    0 152118 158242 155023 160182 161059 59556.9 174974 74317.6    0  10405    0 2000029
 12313.7  80910 173789  37018    0  0  0 88859.6 170549 89912.5    0 151426 159107 155256 160347 161712 13732.2 175556 73917.9    0  10378    0 2000029
 12317.8  80870 173875  37029    0  0  0 88859.9 170624 89207.1    0 152299 159323 154302 159778 159871 29763.4 174899 72991.2    0  10350    0 2000027
 12322  80788 173867  36973    0  0  0 88922.7 170732 90536    0 151501 159200 154910 159527 161159 37232.3 175594 74653.3    0  10339    0 2000028
 12326.1  80744 173926  36891    0  0  0 89524.9 171641 89895.5    0 152878 159572 156245 161004 162869 79868 175174 74986.8    0  10330    0 2000028
 12330.3  80702 173994  36890    0  0  0 88774 171125 90708.7    0 151233 159444 155293 160132 160911 84979.2 175822 73578.1    0  10323    0 2000028
 12334.5  80648 174071  36959    0  0  0 88427.4 171344 90090    0 151490 160487 156307 160588 161793 83659.8 176473 72526.6    0  10315    0 2000028
 12338.7  80601 174127  36885    0  0  0 90273.8 170658 90741.9    0 152715 160651 156269 161222 163293 84553.1 176275 74894.7    0  10307    0 2000028
 12343  80558 174195  36881    0  0  0 90344.2 171367 90380    0 152250 160609 155139 161577 163983 84328.5 177252 75427    0  10301    0 2000028
 12347.2  80511 174252  36910    0  0  0 88519.5 170706 90782.1    0 151432 159437 155538 159462 161224 77597.1 175976 73051.2    0  10293    0 2000028
 12351.4  80496 174387  36974    0  0  0 89324 172939 90877.2    0 152722 160878 157413 161490 163158 81619.4 177526 74356.4    0  10288    0 2000028
 12355.8  80447 174465  36918    0  0  0 89110.1 171698 90687    0 151171 159473 155628 159907 162061 54344.9 175303 73433.7    0  10282    0 2000028
 12360  80404 174536  36932    0  0  0 90078.5 172272 90666.3    0 153378 161121 156656 160592 162994 73765.7 176870 74873.4    0  10280    0 2000029
 12364.3  80344 174577  36916    0  0  0 89658.6 172547 90734.5    0 151981 161335 156776 161133 162001 63896.1 177198 74459.1    0  10311    0 2000028
 12368.6  80301 174665  36863    0  0  0 87741.6 172797 91053.5    0 151620 160212 156730 160759 161593 44343 178006 73344.7    0  10306    0 2000029
 12372.9  80248 174716  36898    0  0  0 89610 172723 91594.1    0 152394 161912 157084 161278 163127 28384 178253 74310.4    0  10299    0 2000028
 12377.3  80196 174777  36850    0  0  0 90187.5 171509 91452.9    0 152620 160870 155789 161695 164092 21777.6 176410 74589.1    0  10292    0 2000028
 12381.6  79989 174489  36850    0  0  0 89215 172108 90484.1    0 152556 160655 155768 160833 163123 27299.3 176358 73920.3    0  10267    0 2000029
 12386  80044 174797  36763    0  0  0 88693.2 172747 91562.4    0 152906 161781 157767 161928 163209 62901.8 177970 73847    0  10242    0 2000028
 12390.5  79982 174854  36747    0  0  0 89819.3 173474 91141.8    0 151781 159639 156357 160497 162220 39483.4 176811 73839.1    0  10236    0 2000029
 12395  79903 174852  36692    0  0  0 89254.9 172006 90074.5    0 152319 160140 155058 160203 163673 44043.2 176301 74329.3    0  10221    0 2000028
 12399.5  79799 174813  36637    0  0  0 89366.1 172684 90729.6    0 152934 160564 156102 160344 162889 51381 176318 73696.5    0  10208    0 2000029
 12404  79739 174885  36588    0  0  0 87698.6 172468 91122.1    0 152413 159784 156829 162008 161002 38980.7 177037 73295.7    0  10197    0 2000028
 12408.5  79583 174729  36527    0  0  0 89935.7 171680 90172.5    0 152764 160191 156920 160741 162442 55048.7 177102 74066.3    0  10179    0 2000028
 12413  79665 175064  36536    0  0  0 90233.5 172721 90638.6    0 152843 161072 157020 161644 163858 53479.5 178340 74794.6    0  10190    0 2000029
 12417.7  79637 175212  36587    0  0  0 89757.2 173055 90863.7    0 153305 160912 156847 161938 162598 56613.2 177382 75054.5    0  10184    0 2000028
 12422.3  79596 175301  36502    0  0  0 89728 171893 91363.7    0 153089 161545 157139 162023 162908 53796 177337 74641.7    0  10182    0 2000028