File: example/Fe/Fe_200_05_01b.xdi
# XDI/1.0 GSE/1.0
# Scan-start_time: 2024-10-02T20:49:50
# Column.1: energy eV
# Column.2: I0_eh2
# Column.3: I1_eh2
# Column.4: IX_eh2
# Column.5: IR_eh2
# Column.6: c8
# Column.7: c9
# Column.8: fluo01
# Column.9: fluo02
# Column.10: fluo03
# Column.11: fluo04
# Column.12: fluo05
# Column.13: fluo06
# Column.14: fluo07
# Column.15: fluo08
# Column.16: fluo09
# Column.17: fluo10
# Column.18: fluo11
# Column.19: fluo12
# Column.20: fluo13
# Column.21: I0_eh1
# Column.22: I1_eh1
# Column.23: IX_eh1
# Mono.name: Si 111
# Mono.d_spacing: 3.134692
# Mono.notes: LNT cooled
# Beamline.name: BM08-LISA
# Facility.name: ESRF
# Facility.xray_source: Bending magnet
# ---------
# BraggEnergy I0_eh2 I1_eh2 IX_eh2 IR_eh2 c8 c9  fluo01  fluo02   fluo03 fluo04  fluo05   fluo06  fluo07  fluo08  fluo09   fluo10  fluo11  fluo12 fluo13 I0_eh1 I1_eh1 IX_eh1
  6969.76 1119097 187089 407097    0  0  0 1866.68 1630.57 1190.61    0 1825.94 1531.03 2215.4 1406.48 2611.59 2915.48 2103.46 2774.17    0 603779  10863 5000069
  6979.58 1120606 189356 412126    0  0  0 1926.89 1690.59 1175.59    0 1706.85 1455.31 2126.49 1370.18 2685.8 2769.34 1961.59 2901.64    0 604155  11311 5000068
  6989.43 1122068 191742 417646    0  0  0 1654.16 1604.16 1186.5    0 1562.99 1415.11 2100.63 1305.24 2415.18 2681.52 1870.91 2693.13    0 604538  11520 5000069
  6999.42 1123586 194200 422910    0  0  0 1763.18 1576.66 1010.28    0 1567.26 1325.7 2034.82 1211.6 2586.1 2712.8 1801.6 2813.84    0 604902  10561 5000069
  7009.42 1125144 196727 428278    0  0  0 1564.47 1483.98 1090.3    0 1483.16 1245.98 2060.31 1228.53 2219.03 2807.93 1689.2 2587.65    0 605425  10754 5000069
  7019.44 1126610 199394 434057    0  0  0 1654.3 1512.15 978.106    0 1458.28 1183.08 2013.71 1238.76 2378.27 3191.87 1762.95 2696.22    0 605721  10882 5000069
  7029.37 1127062 200237 435072    0  0  0 1439.15 1442.9 906.861    0 1370.83 1201.44 1930.27 1257.62 2123.98 2520.22 1650.47 2563.37    0 603813  11274 5000069
  7039.33 1129629 204496 444860    0  0  0 1549.52 1383.16 887.407    0 1424.41 1136.22 2012.75 1143.5 2136.81 4569 1655.98 2531.68    0 606689  11313 5000068
  7049.28 1131028 207128 450246    0  0  0 1450.82 1390.72 783.809    0 1282.55 1109.4 1925.03 1137.1 2113.45 5395.49 1620.32 2527.46    0 606822  11436 5000069
  7059.19 1132420 210056 455902    0  0  0 1432.85 1445.73 836.587    0 1292.59 1013.23 1954.17 1139.98 2044.68 3260.14 1571.99 2435.78    0 607067  11406 5000069
  7069.14 1133802 212537 461527    0  0  0 1344.45 1396.78 791.324    0 1242.59 1032.67 1883.26 1152.47 1983.48 3513.75 1540.66 2295.01    0 607416  11449 5000069
  7079.01 1135181 215293 466885    0  0  0 1295.47 1341.35 798.351    0 1254.35 1100.89 1930.69 1139.36 1920.68 4976.14 1486.08 2299.64    0 607775  11656 5000069
  7088.99 1136521 218138 472125    0  0  0 1281.4 1365.03 773.109    0 1220.86 1031.72 1808.02 1143.55 1851.93 3533.29 1500.92 2206.47    0 608005  11411 5000068
  7099.05 1137920 220620 474554    0  0  0 1317.82 1337.98 741.786    0 1230.31 983.501 2001.54 1114.23 1847.12 2329.23 1529.15 2181.9    0 608207  11854 5000068
  7104.06 1138488 222187 474914    0  0  0 1220.01 1406.94 785.013    0 1271.75 1038.35 1948.76 1093.65 1786.88 3087.72 1533.38 2112.95    0 608195  11879 5000068
  7104.33 1138515 222250 474866    0  0  0 1290.38 1397.94 761.892    0 1201.01 1065.18 1934.7 1129.44 1811.87 4694.09 1439.88 2197.75    0 608163  12042 5000069
  7104.65 1138522 222410 474852    0  0  0 1252.98 1378.82 743.428    0 1237.45 1117.94 1866.19 1162.51 1811.12 2697.78 1439.11 2108.55    0 608138  12018 5000068
  7104.92 1138536 222427 474547    0  0  0 1139.22 1294.04 768.486    0 1197.84 1032.94 1911.61 1110.55 1724.87 2871.7 1485.16 2065.68    0 608107  11289 5000068
  7105.2 1138568 222439 474017    0  0  0 1269.02 1335.18 717.76    0 1198.75 1071.13 2027.06 1109.92 1863.28 2133.85 1589.98 2259.3    0 608055  10911 5000069
  7105.52 1138616 222464 473625    0  0  0 1144.67 1388.55 722.733    0 1214.95 1043.77 2003.31 1116.5 1753.72 2466.5 1497.78 2130.26    0 608003  12069 5000068
  7105.78 1138606 222487 473211    0  0  0 1278.88 1328.75 773.945    0 1166.47 1086.14 1933.79 1183.9 1837 2345.44 1483.71 2302.6    0 607920  11937 5000068
  7106.08 1138615 222583 472937    0  0  0 1117.73 1386.53 742.9    0 1191.21 1032.33 1919.79 1167.95 1711.77 2383.42 1458.49 2065.56    0 607879  11802 5000069
  7106.4 1138606 222647 472373    0  0  0 1271.8 1354.47 727.052    0 1189.21 1001.1 1933.8 1206.64 1872.55 1981.37 1528.02 2219.91    0 607845  10747 5000068
  7106.67 1138641 222708 471916    0  0  0 1288.95 1361.53 758.441    0 1167.25 1024.37 1905.58 1103.97 1746.84 2398.76 1522.18 2161.7    0 607782  10639 5000068
  7106.98 1138657 222736 471076    0  0  0 1201.54 1429.93 701.729    0 1227.15 997.362 1893.2 1108.68 1779.04 2188.81 1499.41 2109.22    0 607703  10507 5000068
  7107.28 1138678 222775 470236    0  0  0 1315.64 1422.58 788.052    0 1163.08 1051.5 1920.74 1138.43 1909.55 1437.55 1504.52 2229.02    0 607658  10362 5000069
  7107.55 1138700 222772 468982    0  0  0 1151.18 1371.23 745.252    0 1179.6 1051.48 1915.39 1164.36 1708.19 1385.93 1534.55 2065.89    0 607595  11302 5000068
  7107.86 1138660 223024 468524    0  0  0 1330.87 1349.23 786.035    0 1198.1 1075.27 1842.23 1131.81 1882.68 1429.19 1471.96 2083.35    0 607468  11792 5000069
  7108.15 1138643 223079 467073    0  0  0 1124.44 1381.97 766.945    0 1194.26 962.745 1943.63 1167.41 1775.64 2710.35 1483.45 1990.53    0 607374  11598 5000069
  7108.43 1138638 223150 465076    0  0  0 1327.97 1390.7 780.949    0 1208.67 1078.84 1925.01 1170.66 1823.08 2665.58 1552.04 2206    0 607289  11425 5000068
  7108.72 1138626 223090 462217    0  0  0 1148.75 1398.46 739.821    0 1228.51 1087.39 1958.78 1223.92 1733.53 1812.28 1632.21 2085.29    0 607176  11729 5000068
  7109.03 1138618 223101 458446    0  0  0 1330.59 1438.51 745.895    0 1269.38 1031.48 1947.14 1237.74 1840.5 1833.79 1477.68 2135.39    0 607046  11281 5000069
  7109.3 1138618 222894 452853    0  0  0 1255.54 1487.67 727.769    0 1226.2 1092.06 1900.23 1189.27 1882.01 2859.27 1551.09 2057.41    0 606836  11746 5000068
  7109.62 1138599 222876 446034    0  0  0 1237.49 1409.79 781.514    0 1198.24 990.496 1928.74 1202.39 1775.59 3015.96 1617.63 2144.37    0 606737  11658 5000069
  7109.92 1138544 222976 437209    0  0  0 1235.35 1376.07 767.915    0 1301.57 1058.43 1977.74 1130.9 1829.69 2916.72 1588.98 2152.52    0 606498  11009 5000068
  7110.19 1138476 223069 426797    0  0  0 1157.76 1406.04 728.281    0 1208.65 1051.17 1943.45 1150.21 1777.78 1705.42 1546.41 2023.24    0 606177  10972 5000069
  7110.52 1138346 222695 413550    0  0  0 1349.68 1411.07 819.717    0 1264.25 1090.8 1963.79 1211.33 1909.22 1702.82 1656.29 2259.14    0 605757  11146 5000069
  7110.8 1138194 221798 399587    0  0  0 1108.33 1452.35 755.417    0 1265.25 1101.19 2024.11 1246.29 1823.64 3365.83 1581.58 2098.66    0 605277  9935 5000069
  7111.08 1137968 221658 385292    0  0  0 1246.66 1446.87 742.865    0 1320.16 1084.61 1978.55 1274.06 1829.1 4168.77 1594.43 2199.32    0 604669  10479 5000069
  7111.38 1137773 221576 372822    0  0  0 1237.39 1484.65 791.635    0 1310.21 1140.11 1976.38 1294.23 1910.48 2782.63 1751.61 2112.92    0 604071  10891 5000069
  7111.67 1137484 221726 361781    0  0  0 1227.61 1467.61 829.277    0 1337.45 1174.7 2022.66 1300.03 1822.87 3183.43 1677.31 2145.06    0 603340  11404 5000068
  7111.94 1137259 221631 352420    0  0  0 1348.85 1518.36 811.157    0 1378.04 1232.01 2058.9 1412.81 1971.13 2752.42 1772.3 2140.48    0 602645  11656 5000068
  7112.26 1137031 221496 343853    0  0  0 1315.52 1527.21 854.929    0 1357.02 1197.66 2055.57 1355.23 2029.99 1898.04 1701.23 2212.99    0 601914  11337 5000069
  7112.56 1136790 221400 336566    0  0  0 1345.82 1579.73 856.791    0 1448.09 1265.73 2068.42 1420.09 1990.25 2592.68 1776.62 2111.21    0 601184  10728 5000068
  7112.83 1136590 221329 330561    0  0  0 1177.36 1583.7 846.817    0 1422.95 1167.35 1992.24 1428.27 1918.16 1595.57 1908.96 2082.01    0 600519  10927 5000068
  7113.16 1136401 221229 324836    0  0  0 1447.38 1584.74 863.482    0 1477.39 1248.16 2027.43 1462.37 2005.25 2614.55 1835.81 2200.92    0 599922  10992 5000069
  7113.44 1136235 221146 319961    0  0  0 1449.29 1721.74 861.438    0 1431.46 1302.36 2105.02 1533.68 2144.11 2144.66 1894.23 2207.78    0 599414  11274 5000068
  7113.74 1136100 221124 315520    0  0  0 1472.8 1660.92 831.239    0 1462.59 1298.66 2136.57 1504.59 2088.58 2434.09 1912.28 2281.43    0 599002  11054 5000068
  7114.05 1136010 221123 311989    0  0  0 1338.04 1633.67 887.252    0 1547.83 1329.65 2177.36 1516.16 2069.34 1916.46 1904.68 2139.58    0 598664  11118 5000069
  7114.33 1135936 221166 308987    0  0  0 1424.04 1599.92 937.51    0 1581.53 1345.1 2131.9 1507.13 2052.5 3236.28 1926.61 2116.99    0 598387  10800 5000068
  7114.61 1135785 221452 307328    0  0  0 1479.65 1683.01 897.136    0 1551.33 1374.73 2203.7 1523.42 2261.24 2214.7 1914.83 2174.55    0 598109  10547 5000069
  7114.93 1135725 221486 305431    0  0  0 1341.57 1706.08 898.818    0 1506 1427.26 2101.22 1542.4 2100.79 1830.33 1961.51 2239.75    0 597914  10829 5000068
  7115.2 1135667 221520 303848    0  0  0 1414.24 1772.85 904.298    0 1634.64 1453.12 2155.12 1540.21 2222.99 2099.53 1967.6 2260.17    0 597736  10368 5000068
  7115.5 1135624 221550 302280    0  0  0 1393.15 1683.64 872.526    0 1583.01 1397.6 2095.76 1549.53 2121.35 2070.16 1999.91 2102.2    0 597570  10030 5000069
  7115.8 1135583 221472 300459    0  0  0 1475.13 1820.36 942.074    0 1571.03 1370.68 2204.09 1612.04 2258.88 1915.56 2129.8 2143.22    0 597375  10090 5000068
  7116.08 1135547 221463 298169    0  0  0 1324.94 1637.43 907.082    0 1514.22 1456.2 2152.82 1637.77 2142.12 2131.06 1896.8 2109.25    0 597140  8714 5000069
  7116.39 1135413 221536 295326    0  0  0 1454.62 1648.96 875.548    0 1567.18 1451 2136.21 1601.04 2208.02 897.736 1981.06 2179.58    0 596831  8519 5000068
  7116.7 1135341 221510 291535    0  0  0 1416.27 1781.6 897.159    0 1512 1436.8 2214.04 1614.14 2069.16 681.909 1917.2 2235.55    0 596558  8980 5000069
  7116.98 1135242 221476 286563    0  0  0 1320.14 1843.8 908.66    0 1589.57 1355.01 2158.22 1652.51 2058.14 1600.45 1999.81 2074.79    0 596234  9065 5000068
  7117.28 1135153 221439 280990    0  0  0 1414.64 1755.51 884.51    0 1546.05 1397.03 2170.22 1551.03 2206.24 2427.88 2016.53 2059.43    0 595918  8916 5000069
  7117.59 1135066 221412 274631    0  0  0 1352.12 1706.89 911.979    0 1624.86 1394.99 2221.06 1637.24 2110.82 1726.26 2027.41 1991.46    0 595580  9471 5000069
  7117.85 1134960 221408 268126    0  0  0 1518.36 1708.75 906.717    0 1642.48 1470.8 2167.09 1579.65 2206.73 1997.19 1996.95 2191.81    0 595242  9537 5000068
  7118.16 1134871 221394 261045    0  0  0 1299.98 1728.15 953.648    0 1550.69 1414.05 2141.79 1608.63 2090.56 2959.8 1916.22 2009.41    0 594895  8547 5000068
  7118.45 1134768 221313 254119    0  0  0 1500.11 1816.81 899.731    0 1574.96 1476.59 2286.73 1646.24 2176.8 2411.52 2030.6 2281.26    0 594567  9063 5000068
  7118.73 1134666 221347 246977    0  0  0 1373.99 1806.8 948.402    0 1611.87 1516.99 2176.49 1637.33 2238.08 2248.53 2006.92 2216.99    0 594235  10080 5000068
  7119.03 1134568 221362 240042    0  0  0 1350.64 1775.49 915.414    0 1568.97 1476.75 2189.12 1624.23 2073.45 439.509 1977.36 2150.5    0 593916  11154 5000068
  7119.34 1134457 221325 232855    0  0  0 1519.64 1793.67 939.078    0 1633.99 1518.87 2229.24 1658.22 2261.18 1317.74 2094.74 2134.31    0 593595  12147 5000068
  7119.6 1134417 221148 225938    0  0  0 1463.06 1790.5 924.979    0 1655.98 1437.33 2308.42 1693.57 2219.39 1044.24 2010.69 2115.9    0 593301  11915 5000069
  7119.93 1134252 221313 219374    0  0  0 1476.11 1885.78 970.776    0 1653.26 1576.78 2385.22 1708.12 2351.6 1046.27 2031.93 2239.95    0 592898  10930 5000069
  7120.22 1134154 221299 213149    0  0  0 1466.04 1927.39 989.257    0 1648.88 1504.49 2315.42 1765.85 2373.53 1073.5 2123.98 2017.99    0 592573  10919 5000068
  7120.51 1134055 221287 207118    0  0  0 1572.26 1896.39 965.618    0 1619.63 1554.81 2301.65 1724.49 2367.67 1658.42 2111.12 2133.71    0 592221  10048 5000068
  7120.81 1133954 221310 201962    0  0  0 1581.01 1965.66 994.78    0 1661.06 1551.38 2271.91 1805.62 2326.32 1651.08 2096.72 2058.38    0 591885  9739 5000068
  7121.11 1133848 221255 196826    0  0  0 1508.71 1960.92 1025.56    0 1744.98 1643.68 2287.42 1850.54 2321.6 1835.9 2187.45 2179.74    0 591522  10021 5000069
  7121.38 1133737 221154 192477    0  0  0 1518.71 1965.11 1044.86    0 1806.83 1666.12 2437.3 1857.29 2273.39 1561.48 2195.4 2226.82    0 591170  10386 5000068
  7121.7 1133640 220976 188218    0  0  0 1460.81 2041.47 998.064    0 1747.23 1681.86 2384.48 1833.79 2428.71 1291.59 2223.12 2182.34    0 590741  9638 5000068
  7121.98 1133510 220897 184684    0  0  0 1559.96 2052.36 1052.47    0 1782.27 1710.17 2405.99 1883.86 2505.35 1744.9 2242.88 2172.15    0 590298  10323 5000069
  7122.27 1133388 220880 181430    0  0  0 1465.45 2050.98 1114.53    0 1873.62 1666.87 2438.97 1931.09 2428.42 1958.89 2359.71 2078.26    0 589876  10655 5000069
  7122.58 1133247 220805 178391    0  0  0 1588.38 1993.74 1131.03    0 1882.74 1712.75 2414.72 1909.69 2538.64 1851.65 2413.97 2145.52    0 589469  10746 5000068
  7122.88 1133055 220758 175634    0  0  0 1495.02 2150.72 1148.69    0 1875.04 1828.68 2473.01 2012.89 2473.06 1591.02 2445.69 2152.07    0 589003  9422 5000069
  7123.16 1132898 220645 173023    0  0  0 1683.49 2228.62 1109.89    0 1915.74 1850.44 2457.36 2121.67 2507.11 1417.04 2397.53 2179.65    0 588539  8776 5000069
  7123.5 1132797 220308 170222    0  0  0 1722.9 2179.32 1161.71    0 1990.3 1873.39 2601.56 2182.19 2724.94 1739.01 2552.9 2303.82    0 588081  8709 5000068
  7123.77 1132618 220194 167990    0  0  0 1660.89 2299.11 1199.34    0 1992.79 1973.55 2653.47 2254.65 2769.52 1458.21 2708.74 2165.06    0 587571  8865 5000069
  7124.08 1132447 220067 165798    0  0  0 1790.23 2398.16 1261.73    0 2092.96 2026.22 2737.92 2257.42 2757.44 1899.04 2692.97 2238.67    0 587021  10199 5000069
  7124.39 1132308 219876 163705    0  0  0 1755.82 2367.33 1268.81    0 2224.83 2111.52 2668.34 2303.41 2837.83 1667.61 2817.41 2153.27    0 586574  9625 5000068
  7124.67 1132128 219622 161579    0  0  0 1939.64 2506.06 1356.3    0 2215.01 2248.75 2756.56 2472.92 2991.73 2494.8 2908.45 2326.46    0 586001  9011 5000068
  7124.96 1131940 219467 159659    0  0  0 1894.64 2544.89 1319.01    0 2283.66 2329.64 2843.06 2468.2 3080.15 992.066 3020.31 2169.07    0 585410  9404 5000068
  7125.29 1131716 219321 157722    0  0  0 2004.34 2677.17 1360.95    0 2337.27 2414.84 2995.76 2539.46 3124.45 1537.27 3150.91 2371.54    0 584734  9616 5000069
  7125.55 1131540 219219 155943    0  0  0 1980.61 2754.8 1421.37    0 2478.2 2370.97 2966.06 2716.9 3152.57 634.843 3237.44 2362.07    0 584125  8885 5000068
  7125.87 1131355 219093 153951    0  0  0 2038.03 2814.49 1440.38    0 2475.39 2536.57 3101.49 2732.73 3347.96 1303.17 3323.33 2234.61    0 583446  9215 5000068
  7126.17 1131185 218994 151944    0  0  0 2073.63 2885.18 1421.47    0 2684.46 2662.25 3221.04 2841.7 3375.37 1458.8 3473.64 2459.61    0 582818  9550 5000068
  7126.46 1130977 218975 149861    0  0  0 2120.39 3029.91 1486.81    0 2720.82 2734.45 3275.78 3007.78 3396.96 1764.41 3519.48 2350.3    0 582155  9672 5000068
  7126.77 1130783 218917 147847    0  0  0 2236.1 3165.76 1689.67    0 2700.85 2815.64 3334.43 3138.87 3684.19 339.429 3671.31 2315.23    0 581565  9210 5000068
  7127.09 1130588 218937 145571    0  0  0 2145.57 3157.78 1688.49    0 2820.12 3010.32 3484.09 3170.64 3681.94 428.216 3798.58 2356.28    0 580990  8950 5000069
  7127.36 1130450 218933 143374    0  0  0 2403.92 3219.41 1657.47    0 3010.52 3015.06 3649.89 3260.71 3829.77 465.434 3881.5 2511.46    0 580547  8951 5000069
  7127.69 1130357 218987 140969    0  0  0 2307.7 3434.42 1803.06    0 2991.44 3149.65 3636.64 3346.2 3918.65 320.254 4057.27 2499.28    0 580185  9294 5000069
  7127.98 1130302 218999 138683    0  0  0 2445.16 3533.22 1747.66    0 3109.91 3311.39 3792.24 3364.2 4143.41 1084.45 4130.99 2633.32    0 579929  9622 5000069
  7128.27 1131139 219839 136803    0  0  0 2533.88 3697.42 1883.64    0 3250.17 3323.81 3952.8 3526.29 4211.92 949.052 4291.86 2429.01    0 581922  10222 5000068
  7128.58 1131885 220625 135086    0  0  0 2644.39 3785.06 1980.67    0 3446.13 3488.69 3856.3 3848.07 4331.31 951.5 4480.17 2558.43    0 583755  10631 5000069
  7128.88 1131895 220656 132955    0  0  0 2716.4 3941.32 2018.95    0 3400.99 3534.52 4057.77 3819.43 4525.16 1301.55 4692.28 2651.09    0 583678  9613 5000069
  7129.15 1133967 223012 132532    0  0  0 2610.32 3929.54 2078.09    0 3631.02 3762.51 4243.72 4048.81 4579.22 540.326 4788.76 2590.2    0 589018  9804 5000068
  7129.47 1137614 226379 132827    0  0  0 2866.96 4166.34 2187.67    0 3700.22 3809.47 4334.51 4080.25 4812.64 380.429 4912.47 2835.35    0 598396  10464 5000068
  7129.77 1138200 226769 131633    0  0  0 2815.89 4250.05 2251.28    0 3764.76 4056.14 4423.6 4344.81 4834.71 686.631 5132.71 2665.98    0 599868  11120 5000068
  7130.05 1138344 226983 130807    0  0  0 2986.09 4436.63 2266.74    0 3821.1 4165.46 4515.23 4211.95 5064.35 404.092 5166.03 2862.29    0 600232  10308 5000069
  7130.39 1139057 227723 130840    0  0  0 2907.54 4429.75 2343.94    0 3995.23 4202.19 4558.5 4526.55 5139.4 319.989 5259.13 2771.08    0 602086  10516 5000069
  7130.67 1139611 228337 131306    0  0  0 3192.71 4638.02 2264.14    0 4029.46 4385.79 4729.37 4715.62 5259.3 614.269 5582.63 2863.77    0 603479  10610 5000068
  7130.98 1139460 228270 131918    0  0  0 3093.9 4633.52 2402.42    0 3975.54 4471.83 4775.04 4588.57 5339.08 948.614 5683.24 2835.82    0 602993  10889 5000069
  7131.29 1139282 228208 132916    0  0  0 3130.49 4666.83 2465.9    0 4086.19 4565.92 4987.99 4613.17 5455.81 115.482 5727.91 2835.56    0 602429  11504 5000068
  7131.58 1139114 228180 134405    0  0  0 3167.12 4796.4 2511.4    0 4233.75 4558.54 4895.14 4830.3 5411.78 272.618 5590.77 2956.6    0 601867  10831 5000068
  7131.87 1138955 228145 136077    0  0  0 3245.28 4864.13 2535.46    0 4173.53 4562.78 4993.04 4759.54 5494.4  90.9946 5594.23 2917    0 601369  10501 5000068
  7132.19 1138816 228120 137951    0  0  0 3152.74 4845.46 2514.25    0 4109.92 4482.1 5020.88 4761.75 5608.28  0.000000 5851.28 2979.23    0 600897  9695 5000069
  7132.46 1138702 228088 139929    0  0  0 3097.9 4832.52 2486.84    0 4370.68 4666.62 4895.31 4798.41 5466.31 540.776 5703.64 2836.49    0 600490  9529 5000068
  7132.77 1138610 228078 141971    0  0  0 3250.12 4782.99 2459.26    0 4215.83 4619.85 5031.52 4895.82 5602.27 2416.14 5731.75 2863.88    0 600162  9465 5000068
  7133.09 1138568 228019 144016    0  0  0 3200.07 4713.21 2609.6    0 4156.93 4641.18 4803.05 4896.37 5482.77 1810.56 5777.77 2904.12    0 599873  9772 5000068
  7133.37 1138502 228060 145958    0  0  0 3268.58 4783.28 2566.57    0 4142.64 4685.63 4882.63 4753.64 5527.6 493.214 5859.22 2891.99    0 599660  9376 5000068
  7133.7 1138494 228083 147795    0  0  0 3206.49 4826.14 2593.74    0 4377.74 4709.7 4980.04 4808.42 5426.43 937.965 5825.94 2947.11    0 599508  9124 5000068
  7134 1138516 228163 149420    0  0  0 3131.35 4758.64 2520.91    0 4364.94 4540.32 4843.32 4725.65 5553.33 1455.39 5842.06 2776.68    0 599405  9031 5000068
  7134.29 1138545 228204 150883    0  0  0 3265.53 4905.76 2466.53    0 4187.22 4625.46 4863.71 4780.25 5530.77 1752.26 5671.18 2889.03    0 599358  9925 5000068
  7134.61 1138577 228274 152104    0  0  0 3129.69 4747.44 2466    0 4215.13 4632.89 4964.87 4778.35 5443.81 2008.25 5737.01 2812.18    0 599303  10844 5000068
  7134.91 1138616 228339 153152    0  0  0 3178.66 4721.18 2481.1    0 4049.65 4503.99 4761.3 4773.82 5623.21 1924.07 5741.15 2966.64    0 599292  10661 5000068
  7135.19 1138681 228402 153988    0  0  0 3163.06 4734.29 2441.61    0 4183.46 4651.17 4972.24 4846.56 5441.87 2859.9 5547.77 2776.11    0 599302  11065 5000068
  7135.5 1138728 228523 154564    0  0  0 3199.88 4597.91 2552.26    0 4247 4634.35 4780.98 4731.27 5505.23 1692.89 5767.78 2932.57    0 599329  11274 5000068
  7135.8 1138802 228580 155028    0  0  0 3117.77 4747.18 2377.57    0 4306.79 4584.51 4746.27 4820.29 5509.05 1972.81 5675.28 2815.93    0 599361  10460 5000068
  7136.08 1138861 228644 155207    0  0  0 3167.75 4718.55 2425.53    0 4125.19 4535.44 4859.85 4856.1 5298.22 1466.8 5772.87 2930.97    0 599397  10676 5000068
  7136.41 1138937 228707 155277    0  0  0 3154.3 4743.56 2446.67    0 4257.91 4484.38 4862.63 4696.49 5444.55 2284.3 5727.44 2920.04    0 599423  10841 5000069
  7136.69 1138986 228854 155204    0  0  0 3014.01 4689.82 2411.74    0 4203 4613.73 4870.05 4831.64 5382.65 2157.48 5724.44 2854.51    0 599481  10705 5000068
  7137.01 1139046 228976 154958    0  0  0 3068.47 4736.86 2477.79    0 4153.46 4582.46 4800.89 4752.31 5310.24 748.053 5661.23 3065.5    0 599542  11195 5000068
  7137.33 1139142 229157 154663    0  0  0 3123.29 4694.84 2469.34    0 4213.93 4480.59 4944.59 4695.63 5395.86 1438.23 5615.55 2783.03    0 599640  10884 5000068
  7137.6 1139194 229228 154080    0  0  0 3104.29 4603.97 2472.91    0 4158.67 4394.84 4840.02 4690.07 5437.31 1760.11 5700.75 2864.67    0 599700  9997 5000068
  7137.92 1139273 229401 153570    0  0  0 3121.63 4650.81 2447.7    0 4027.61 4443.2 4689.9 4774.11 5360.14 1054.2 5578.98 2776.56    0 599763  10441 5000069
  7138.23 1139406 229193 152526    0  0  0 3083.77 4747.49 2372.99    0 4245.46 4388.68 4806.59 4753.83 5362.06 946.943 5622.26 2846.22    0 599880  10665 5000068
  7138.52 1139488 229201 151696    0  0  0 3055.98 4680.48 2467.99    0 4148.38 4411.06 4705.64 4598.05 5358.13 2388.35 5535.13 2898.11    0 599932  10719 5000068
  7138.82 1139536 229301 150988    0  0  0 3135.86 4581.58 2367.56    0 4023.89 4218.4 4839.15 4623.72 5337.65 761.221 5555.01 2810.12    0 599994  10923 5000068
  7139.15 1139592 229412 150347    0  0  0 3180.97 4684.8 2433.06    0 4187.52 4367.05 4725.45 4589.94 5184.61 1684.73 5590.55 2869.27    0 600059  11012 5000068
  7139.42 1139665 229501 149731    0  0  0 2954 4592.42 2362.42    0 3975.4 4344.69 4706.24 4647.38 5262.49 1739.01 5520.58 2768.56    0 600104  10795 5000068
  7139.73 1139721 229574 149155    0  0  0 3036.9 4617.39 2371.21    0 4160.8 4262.76 4773.87 4598.71 5213.28 3123.27 5516.64 2739.48    0 600142  10421 5000069
  7140.05 1139809 229636 148725    0  0  0 2850.83 4528.05 2280.69    0 4024.3 4153.08 4708.6 4393.67 5109.48 3483.25 5465.42 2770.94    0 600207  10112 5000068
  7140.33 1139902 229688 148305    0  0  0 3047.59 4396.24 2358.26    0 4027.83 4272.28 4564.57 4475.29 5221.84 3179.52 5513.27 2834.41    0 600257  10220 5000069
  7140.67 1139972 229803 148119    0  0  0 2986.11 4466 2360.14    0 3997.43 4210.48 4556.25 4501.33 5002.05 1873.09 5348.7 2767.69    0 600329  10667 5000068
  7140.96 1140037 229914 148037    0  0  0 2959.73 4455.01 2313.31    0 3962.8 4288.57 4732.69 4475.57 5034.87 2114.82 5328.19 2820.37    0 600402  10856 5000069
  7141.25 1140111 230020 148067    0  0  0 2807.67 4360.75 2229.44    0 3973.86 4272.72 4543.37 4373.12 5040.71 906.251 5237.73 2754.7    0 600469  9548 5000068
  7141.59 1140187 230169 148223    0  0  0 2926.21 4397.96 2313.09    0 3850.7 4024.08 4553.31 4283.23 5040.39 1759.45 5274.92 2667.61    0 600557  9966 5000068
  7141.87 1140270 230228 148408    0  0  0 2927.38 4365.41 2283.68    0 3842.5 3991.59 4581.94 4467.57 4987.13 2897.55 5077.4 2707.92    0 600630  10619 5000068
  7142.17 1140357 230367 148692    0  0  0 2854.48 4254.67 2202.56    0 3927.02 4112.76 4345.4 4354.57 5024.46 2149 5244.18 2627.54    0 600702  11181 5000069
  7142.48 1140425 230476 148991    0  0  0 2958.66 4263.41 2255.95    0 3761.57 3950.05 4569.43 4227.31 4907.4 2467.22 5043.99 2810.65    0 600782  11407 5000069
  7142.76 1140491 230642 149282    0  0  0 2855.54 4214.59 2196.15    0 3770.84 3983.59 4519.09 4138.92 4772.24 1782.22 4961.01 2669.6    0 600880  11348 5000068
  7143.07 1140585 230723 149619    0  0  0 2924.55 4259.21 2205.5    0 3735.32 4113.59 4534.25 4227.78 4918.11 3216.05 5133.37 2722.57    0 600968  11033 5000068
  7143.38 1140651 230844 149803    0  0  0 2734.24 4113.69 2227.4    0 3745.1 3871.61 4326.08 4253.87 4778.59 2156.54 5069.98 2603.08    0 601058  11745 5000069
  7143.68 1140684 231266 150298    0  0  0 2756.47 4129.88 2143.98    0 3727.34 4131.09 4334.7 4191.02 4746.33 4054.25 4884.73 2738.21    0 601160  11570 5000068
  7143.99 1140781 231450 150492    0  0  0 2716.52 4070.44 2083.79    0 3654.97 3918.56 4352.08 4034.24 4638.2 5051.44 4964.54 2627.52    0 601277  11482 5000068
  7144.3 1140861 231541 150427    0  0  0 2735.69 4035.42 2141.98    0 3676.99 3902.96 4211.27 4111.66 4735.95 4733.15 4761.73 2618.58    0 601400  11255 5000069
  7144.6 1140968 231632 150255    0  0  0 2718.04 4129.88 2152.52    0 3802.47 3955.59 4144.42 4068.86 4553.61 4707.94 4945.04 2604.14    0 601532  10757 5000069
  7144.91 1141067 231800 150114    0  0  0 2744.09 4121.24 2177.46    0 3694.91 3799.87 4307.49 4071.86 4625.98 3257.84 4765.75 2642.43    0 601658  11216 5000069
  7145.21 1141157 231871 149639    0  0  0 2872.23 4058.27 2068.43    0 3740.27 3781.28 4296.36 4066.73 4550.79 3293.83 4887.43 2756.44    0 601792  11783 5000069
  7145.5 1141258 232023 149190    0  0  0 2648.46 4138.78 2049.54    0 3584.88 3711.58 4275.6 4094.81 4560.15 3197.22 4827.19 2558.87    0 601943  11610 5000069
  7145.81 1141315 232191 148604    0  0  0 2696.79 4019.52 2081.69    0 3503.8 3856.42 4294.56 4049.98 4636.96 3227.75 4703.32 2703.94    0 602038  11957 5000069
  7146.12 1141436 232284 147888    0  0  0 2639.96 4064.05 2126.83    0 3499.67 3811.93 4218.13 3992.44 4490.06 4279.86 4819.37 2681.56    0 602191  11392 5000068
  7146.39 1141502 232416 147223    0  0  0 2712.94 3995.89 2091.76    0 3566.98 3706.52 4345.61 4032.75 4556.03 3106.1 4647.6 2653.61    0 602330  10338 5000068
  7146.71 1141603 232547 146450    0  0  0 2682.5 3940.07 2042.37    0 3441.78 3680.49 4198.81 3874.24 4624.2 2521.37 4794.73 2643.38    0 602474  11023 5000068
  7147.02 1141688 232728 145638    0  0  0 2627.22 3989.31 2109.79    0 3575.05 3831.76 4181.1 3868.83 4457.89 2212.99 4749.64 2626.08    0 602620  11314 5000068
  7147.3 1141804 232876 144891    0  0  0 2683.84 3914.64 2026.63    0 3665.21 3681.44 4092.78 4016.08 4576.85 2216.49 4771.5 2604.12    0 602778  11919 5000069
  7147.64 1141891 233017 143975    0  0  0 2538.33 3993.76 2096.74    0 3461.25 3666.86 4224.82 3935.79 4460.25 2136.79 4746.65 2519.14    0 602901  10715 5000068
  7147.92 1141984 233093 143181    0  0  0 2671.25 3955.72 2053.49    0 3497.44 3622.12 4059.22 4028.35 4525.2 1574.46 4840.94 2576.82    0 603050  11109 5000069
  7148.21 1142089 233180 142397    0  0  0 2581.54 3948.31 2133.09    0 3475.44 3629.24 4187.35 3860.68 4395.02 2757.68 4714.38 2586.76    0 603179  11210 5000068
  7148.54 1142201 233245 141690    0  0  0 2634.91 3792.16 1995.22    0 3454.13 3661 4073.1 3924.07 4494.68 1587.59 4663.2 2561.1    0 603305  12223 5000068
  7148.81 1142271 233302 141058    0  0  0 2588.5 4001.61 2004.4    0 3541.23 3642.53 4046.7 3964.27 4344.43 1811.25 4628.3 2551.38    0 603392  12278 5000069
  7149.09 1142311 233429 140569    0  0  0 2660.37 3792.11 1939.84    0 3535.7 3607.47 4169.89 3988.89 4389.87 2266.87 4626.71 2529.57    0 603474  12752 5000068
  7149.42 1142410 233493 140093    0  0  0 2621.69 3818.2 1925.74    0 3401.68 3600.7 4144.49 3931 4630.77 2474.61 4554.93 2509.63    0 603582  11428 5000068
  7149.69 1142470 233497 139622    0  0  0 2561.35 3858.61 2063.71    0 3397.48 3585.5 4054.29 3888.94 4444.91 4524.26 4588.7 2508.06    0 603642  11061 5000069
  7149.98 1142526 233591 139294    0  0  0 2705.56 3948.97 2022.35    0 3406.76 3640.21 4171.07 3755.4 4299.48 3046.45 4458.89 2641.53    0 603691  11556 5000069
  7150.31 1142574 233664 138943    0  0  0 2532.91 3911.1 1960.96    0 3411.82 3610.56 3961.11 3803.4 4400.28 4085.57 4544.88 2568.41    0 603735  12551 5000068
  7150.59 1142632 233737 138630    0  0  0 2606.09 3782.86 1913.53    0 3429.73 3597.94 4039.78 3781.68 4374.62 4481.67 4592.6 2590.42    0 603778  12595 5000068
  7150.91 1142698 233864 138443    0  0  0 2461.52 3903.08 1928.7    0 3449.73 3485.26 4104.3 3868 4299.34 2856.29 4660.47 2548.11    0 603803  12872 5000069
  7151.22 1142741 233815 138093    0  0  0 2562.75 3697.87 1912.55    0 3438.34 3606.55 3970.66 3770.82 4366.71 2693.71 4567.89 2599.13    0 603818  12827 5000068
  7151.5 1142783 233886 137913    0  0  0 2502.95 3800.84 1913.6    0 3444.25 3625.82 3921.55 3844.3 4372.72 2493.43 4554.15 2446.69    0 603808  12275 5000069
  7151.82 1142848 233902 137643    0  0  0 2468.12 3748.2 1986.97    0 3482.85 3586.48 3959.36 3782.19 4323.76 3448.81 4377.2 2511.61    0 603831  11673 5000069
  7152.12 1142879 233969 137477    0  0  0 2466.6 3809.48 2044.28    0 3391.04 3435.33 4045.31 3671.29 4226.65 4051.55 4508.88 2655.36    0 603808  12046 5000068
  7152.39 1142885 234080 137423    0  0  0 2585.01 3853.04 1943.6    0 3302.42 3444.43 4053.24 3675.58 4284.61 4669.42 4544.25 2540.27    0 603786  11750 5000068
  7152.71 1142929 234175 137341    0  0  0 2498.76 3718.83 1904.39    0 3432.26 3479.18 3967.08 3858.78 4207.76 3291.97 4411.32 2598.99    0 603776  11802 5000068
  7153.01 1143029 233928 137091    0  0  0 2452.9 3809.19 1985.07    0 3375.92 3406.57 3927.16 3727.92 4136.58 3654.98 4481.53 2507.29    0 603781  11392 5000068
  7153.28 1143052 233954 137024    0  0  0 2524.72 3749.77 1860.21    0 3392.92 3467.49 3955.99 3816.46 4194.68 3538.72 4505.57 2637.73    0 603755  11947 5000068
  7153.61 1143097 233936 136987    0  0  0 2455.13 3904.8 1868.05    0 3431.91 3504.53 3999.05 3714.86 4198.6 3651.23 4445.98 2516.35    0 603730  11547 5000068
  7153.81 1143092 233999 137078    0  0  0 2559.33 3784.73 1912.52    0 3293.13 3494.45 3884.96 3629.35 4228.14 3768.64 4430.75 2550.22    0 603695  11396 5000068
  7156.12 1143429 234585 138657    0  0  0 2430.23 3611.43 1931.69    0 3272.1 3340.47 3801.66 3654.36 4183.16 3703.63 4261.97 2486.86    0 603698  12504 5000068
  7158.52 1143627 235247 139677    0  0  0 2397.39 3584.14 1940.84    0 3207.38 3365.27 3747.77 3504.14 4071.66 4381.1 4284.4 2389.39    0 603368  13156 5000068
  7161 1143689 235812 140369    0  0  0 2331.07 3508.29 1788.67    0 3195.95 3150.33 3799.27 3522.99 4029.03 3738.24 4038.2 2448.05    0 602665  12775 5000069
  7163.58 1143691 236456 142220    0  0  0 2328.23 3572.24 1810.32    0 3135.59 3287.52 3810.81 3475.76 3923.41 3535.11 4244.02 2335.78    0 601803  13369 5000068
  7166.24 1143687 236530 143552    0  0  0 2451.2 3555.21 1880.28    0 3330.45 3370.51 3827.35 3566.43 4088.77 2238.84 4307.85 2518.73    0 600808  12860 5000068
  7168.97 1143771 236675 144668    0  0  0 2353.8 3659.63 1869.99    0 3286.54 3459.73 3852.97 3600.39 4168.47 2404.78 4388.12 2486.06    0 599990  13473 5000069
  7171.81 1144052 237287 147844    0  0  0 2438.75 3931.6 1846.81    0 3390.69 3491.91 4040.32 3759.64 4210.57 2612.16 4606.65 2535.59    0 599668  12952 5000068
  7174.7 1144449 238182 153299    0  0  0 2610.07 3889.89 2061.26    0 3427.98 3692.65 4199.89 3908.5 4354.23 3590.44 4797.62 2406.02    0 599689  12334 5000069
  7177.65 1144778 239529 159641    0  0  0 2675.41 4051.79 2032.97    0 3497.2 3777.68 4083.42 4177.55 4505.56 4119.66 4813.3 2461.46    0 599675  12645 5000069
  7180.73 1145244 240330 161777    0  0  0 2578.67 3985.1 2105.21    0 3615.01 3784.04 4270.13 4124.18 4426.87 3325.72 4833.17 2517.74    0 599757  13150 5000069
  7183.87 1145819 241190 160160    0  0  0 2645.39 4049.89 2128.2    0 3586.61 3797.04 4225.41 4108.46 4473.73 4546.81 4920.71 2479.4    0 600079  12379 5000068
  7187.15 1146411 242110 155611    0  0  0 2617.1 4087.3 2060.07    0 3610.01 3793.5 4297.92 4096.37 4566.4 3141.23 4887.37 2436.03    0 600427  12485 5000068
  7190.47 1146972 243435 150269    0  0  0 2623.65 4146.53 2001.35    0 3772.78 3902.8 4295.5 4058.51 4597.88 4371.38 4936.15 2491.41    0 600807  12167 5000068
  7193.87 1147534 244797 146980    0  0  0 2616.8 4219.06 2219.98    0 3819.99 3871.06 4353.44 4192.48 4661.95 5582.97 4925.24 2521.45    0 601254  12269 5000069
  7197.28 1148183 245999 150516    0  0  0 2642.06 4089.4 2039.19    0 3741.44 3871.18 4276.71 4257.97 4471.82 5794.75 4923.75 2505.37    0 601799  12187 5000068
  7200.77 1148848 246748 157688    0  0  0 2640.24 4243.31 2193.1    0 3699.95 3902.06 4306.61 4140.27 4595.93 5309.78 4898.07 2442.35    0 602162  12506 5000068
  7204.36 1149364 248101 166695    0  0  0 2586.64 4219.04 2129.6    0 3741.32 3866.07 4336.81 4099.04 4377.75 4761.45 4955.84 2378.15    0 602217  12693 5000069
  7208 1149685 249166 170077    0  0  0 2662.32 4128.29 1962.1    0 3639.7 3846.24 4320.99 4239.91 4612.62 4508.45 4882.21 2451.16    0 602014  12460 5000068
  7211.67 1150020 250173 159061    0  0  0 2467.13 4007.84 2040.14    0 3613.88 3770.59 4233.55 4110.33 4423.36 5585.96 4746.26 2316.44    0 601645  11872 5000069
  7215.41 1150527 251015 141351    0  0  0 2443.52 4108.09 2001.96    0 3680.99 3826.03 4188.63 4019.32 4414.83 4430.61 4863.56 2441    0 601504  12829 5000068
  7219.24 1151101 252238 131994    0  0  0 2479.48 4013.46 2081.09    0 3408.28 3729.38 4141.39 3920.07 4352.57 4644.74 4798.42 2334.86    0 601635  13206 5000069
  7223.2 1151717 253845 136139    0  0  0 2483.82 4153.94 2134.7    0 3673.33 3812.84 4348.56 4099.21 4375.99 4762.56 4924.38 2344.56    0 601951  12472 5000068
  7227.22 1152328 255187 149938    0  0  0 2461.62 4045.35 2011.9    0 3589.37 3774.29 4175.17 4029.59 4202 5082.93 4766.24 2229.73    0 602215  11658 5000068
  7231.28 1152891 256213 165666    0  0  0 2448.08 3900.52 2104.7    0 3483.26 3701.11 4201.95 3973.83 4200.68 4369.53 4785.94 2287.54    0 602220  12361 5000068
  7235.46 1153283 257329 177465    0  0  0 2567.61 4157.82 2047.43    0 3585.27 3777.95 4091.07 4080.92 4290.69 4438.84 4836.47 2312.54    0 601776  12533 5000068
  7239.69 1153650 258784 180415    0  0  0 2494.8 4134.98 1967.73    0 3604.78 3811.9 4249.9 4174.86 4436.62 4144.05 4898.5 2246.82    0 601375  12282 5000068
  7244.03 1154275 260117 175927    0  0  0 2459 4118.75 2127.97    0 3549.57 3886.69 4300.93 4131.9 4434.35 4205.72 5023.43 2386.25    0 601460  12015 5000068
  7248.45 1154959 261391 171827    0  0  0 2542.75 4180.15 2176.84    0 3755.57 3996.47 4364.15 4150.29 4459.61 4450.79 4972.47 2229.47    0 601680  11855 5000069
  7252.98 1155680 263057 174459    0  0  0 2458.94 4181.9 2040.26    0 3746.03 3942.45 4330.39 4324.16 4311.37 4486.61 5070.19 2390.65    0 602027  11712 5000068
  7257.55 1156312 265061 177299    0  0  0 2473.11 4336.22 2131.45    0 3827.42 3943.11 4412.55 4341.37 4546.23 5439.67 5116.52 2179.21    0 602345  12320 5000069
  7262.19 1157099 266502 174456    0  0  0 2520.06 4321.54 2182.83    0 3783.75 3998.57 4269.56 4274.04 4462.48 4136.38 5025.71 2389.47    0 602742  12925 5000068
  7266.89 1157784 267929 172086    0  0  0 2528.87 4359.11 2097.08    0 3837.48 4137.67 4419.45 4449.56 4572.19 4462.81 5184.1 2295.23    0 602904  12555 5000068
  7271.65 1158336 269488 167163    0  0  0 2521.14 4398.8 2189.41    0 3923.01 4162.47 4444.94 4440.12 4621.97 5358.71 5115.27 2227.14    0 602746  13225 5000068
  7276.54 1158907 271108 164007    0  0  0 2622.69 4368.83 2195.39    0 3948.65 4207.66 4545.04 4412.89 4693.07 5517.17 5161.89 2340.25    0 602652  12120 5000069
  7281.49 1159544 272711 161382    0  0  0 2610.65 4533.95 2290.77    0 3907.07 4202.16 4440.45 4452.67 4584.64 6496.58 5128.28 2379.9    0 602596  12248 5000068
  7286.59 1160190 274615 158358    0  0  0 2611.8 4495.46 2276.49    0 3869.75 4166.77 4618.56 4466.62 4482.43 6837.76 5234.8 2248.1    0 602627  12337 5000068
  7291.74 1160932 276681 162847    0  0  0 2509.05 4355.76 2123.52    0 3826.87 4082.81 4609.79 4502.87 4517.95 4476.7 5287.43 2191.6    0 602942  12342 5000069
  7296.97 1161522 278343 175034    0  0  0 2529.52 4517.79 2187.49    0 3903.12 4021.84 4570.2 4427.55 4541.3 7247.37 5173.77 2278.27    0 602728  12485 5000068
  7302.22 1162358 280393 185341    0  0  0 2570.99 4486.37 2246.41    0 3829.07 4115.61 4504.16 4385.99 4407.74 6436.32 5120.02 2178.51    0 603089  13161 5000068
  7307.57 1163028 282346 191111    0  0  0 2532.47 4446.64 2084.81    0 3907.16 4130.12 4519.07 4452.8 4552.81 6544.55 5095.66 2262.41    0 603106  12505 5000069
  7312.96 1163718 284173 192268    0  0  0 2548.31 4433.33 2247.79    0 3828.24 4195.53 4609.92 4515.47 4504.32 6436.99 5270.07 2163.67    0 603040  12886 5000068
  7318.47 1164405 285910 193354    0  0  0 2547.27 4520.56 2213.96    0 3888.15 4076.43 4483.71 4336.28 4546.53 6194.12 5320.22 2223.9    0 602918  13020 5000069
  7324.05 1164521 286816 193386    0  0  0 2591.57 4526.46 2222.5    0 3933.37 4240.01 4418.01 4458.19 4655.57 3366.91 5148.97 2221.96    0 601612  12365 5000069
  7329.78 1163395 286593 193702    0  0  0 2492.99 4355.86 2209.59    0 4022.02 4109.39 4374.95 4373.82 4513.32 2905.75 5219.34 2178.72    0 596674  12693 5000068
  7335.59 1165153 290272 199234    0  0  0 2511.73 4556.61 2199.62    0 3948.79 4079 4374.29 4427.42 4474.69 3010.87 5320.26 2045.82    0 598969  13113 5000068
  7341.41 1167765 294979 201051    0  0  0 2510.35 4670.79 2259.99    0 3995.73 4135.9 4617.32 4409.02 4630.46 3087.71 5339.51 2185.58    0 603960  13342 5000067
  7347.34 1168504 297017 195092    0  0  0 2566.53 4612.3 2225.68    0 4007.48 4193.53 4610.14 4707.12 4769.87 3137.24 5340.28 2111.24    0 603948  13424 5000068
  7353.29 1169260 299137 189034    0  0  0 2646.08 4670.47 2267.89    0 4023.73 4168.75 4652.63 4622.06 4630.31 3108.27 5352.83 2115.7    0 603950  13131 5000069
  7359.3 1170014 301370 184805    0  0  0 2518.67 4573.73 2255.08    0 4020.07 4300.24 4828.14 4687.33 4763.06 3155.92 5556.07 2092.79    0 603989  12895 5000068
  7365.33 1170786 303628 183363    0  0  0 2677.71 4541.81 2280.05    0 4119.99 4284.98 4628.26 4632.52 4773.88 3198 5498.91 2102.15    0 603979  12492 5000069
  7371.52 1171543 305888 188024    0  0  0 2635.33 4767.58 2345.52    0 4196.13 4317.94 4702.79 4642.3 4740.67 3190.99 5441.88 2098.67    0 603927  12225 5000068
  7377.77 1172305 308453 200925    0  0  0 2621.16 4761.85 2363.6    0 4121.06 4411.1 4686.74 4686.46 4798.45 3204.74 5507.96 2101.81    0 603954  12609 5000069
  7384 1173116 310925 214652    0  0  0 2552.1 4656.39 2303.25    0 4224.39 4432.17 4692.89 4735.47 4564.25 3171.56 5363.61 2170.61    0 603994  11536 5000068
  7390.35 1173946 313349 217629    0  0  0 2639.17 4719.89 2340.57    0 4253.34 4323.64 4745.68 4895.72 4778.41 3188.5 5509.58 2089.77    0 604015  12002 5000068
  7396.84 1174797 316077 216429    0  0  0 2600.7 4813.14 2411.67    0 4153.87 4371.36 4745.66 4823.31 4641.77 3155.06 5538.09 2119.76    0 604120  12910 5000068
  7403.36 1175591 318551 217488    0  0  0 2651.32 4814.18 2299.64    0 4266.29 4367.85 4718.5 4703.89 4767.74 3033.68 5428.96 2082.48    0 604074  12735 5000069
  7409.91 1176014 320928 218724    0  0  0 2683.26 4746.5 2354.45    0 4509.66 4500.95 4743.23 4817.11 4691.72 3239.67 5701.74 2056.73    0 603420  12355 5000069
  7416.46 1177554 324062 219768    0  0  0 2712.9 4922.38 2377.11    0 4252.86 4551.1 4754.6 4778.17 4643.83 3203.47 5532.53 1978.33    0 604680  12361 5000069
  7423.12 1178333 326817 223206    0  0  0 2685.9 4960.79 2419.48    0 4324.76 4504.35 4863.13 4890.55 4787.3 3474.63 5604.1 2121.3    0 604587  12302 5000068
  7429.97 1179138 329615 226360    0  0  0 2753.24 4830.38 2412.93    0 4267.2 4597.73 4762.58 4791.18 4785.53 3313.91 5663.67 2127.68    0 604512  12260 5000068