File: example/Fe/Fe_200_05_02.xdi
# XDI/1.0 GSE/1.0
# Scan-start_time: 2024-10-02T19:47:11
# Column.1: energy eV
# Column.2: I0_eh2
# Column.3: I1_eh2
# Column.4: IX_eh2
# Column.5: IR_eh2
# Column.6: c8
# Column.7: c9
# Column.8: fluo01
# Column.9: fluo02
# Column.10: fluo03
# Column.11: fluo04
# Column.12: fluo05
# Column.13: fluo06
# Column.14: fluo07
# Column.15: fluo08
# Column.16: fluo09
# Column.17: fluo10
# Column.18: fluo11
# Column.19: fluo12
# Column.20: fluo13
# Column.21: I0_eh1
# Column.22: I1_eh1
# Column.23: IX_eh1
# Mono.name: Si 111
# Mono.d_spacing: 3.134692
# Mono.notes: LNT cooled
# Beamline.name: BM08-LISA
# Facility.name: ESRF
# Facility.xray_source: Bending magnet
# ---------
# BraggEnergy I0_eh2 I1_eh2 IX_eh2 IR_eh2 c8 c9  fluo01  fluo02   fluo03 fluo04  fluo05  fluo06  fluo07  fluo08  fluo09   fluo10  fluo11  fluo12 fluo13 I0_eh1 I1_eh1 IX_eh1
  6969.77 1119733 185005 392499    0  0  0 1864.31 1715.42 1179.57    0 1781.52 1477.91 2318.71 1330.65 2817.83 4441.43 2015.38 2855.67    0 605347  1753 5000068
  6979.59 1121248 187334 397487    0  0  0 2076.93 1681.4 1190.56    0 1778.07 1451.77 2153.68 1399.83 2989.63 3441.51 2016.46 2770.39    0 605738  1059 5000069
  6989.44 1122720 189681 402627    0  0  0 1874.78 1683.68 1109.18    0 1667.7 1390.61 2110.94 1345.29 2684.31 4856.84 1946.21 2781.32    0 606110   938 5000069
  6999.43 1124195 192079 407657    0  0  0 1925.86 1583.84 1034.82    0 1614.6 1369.04 2023.38 1313.88 2769.23 2017.59 1786.04 2745.21    0 606482   392 5000068
  7009.42 1125760 194575 412712    0  0  0 1563.58 1509.32 973.48    0 1527.51 1310.3 2038.82 1327.05 2443.27 2220.67 1725.06 2614.21    0 606982    0 5000068
  7019.44 1127194 197271 418486    0  0  0 1829.04 1487.96 939.314    0 1454.31 1182.1 2059.15 1219.49 2605.1 1590.25 1703.8 2762.85    0 607251  1272 5000068
  7029.36 1127608 198282 419950    0  0  0 1680.04 1472.03 900.709    0 1383.02 1187.14 2011.41 1209.53 2325.11 2046.91 1679.29 2522.49    0 605343   976 5000069
  7039.33 1130184 202547 429669    0  0  0 1772.09 1418.49 912.785    0 1357.05 1128.12 1980.43 1240.37 2364.99 1537.11 1624.32 2622.71    0 608220  1078 5000068
  7049.29 1131543 205258 435265    0  0  0 1485.88 1488.44 896.476    0 1433.13 1103.65 1898.35 1194.53 2126.22 2019.16 1603.89 2499.61    0 608441   921 5000069
  7059.19 1132946 208133 440492    0  0  0 1570.97 1444.65 858.109    0 1309.64 1138.41 1953.24 1176.38 2249.7 562.498 1578.91 2564.57    0 608681  1392 5000068
  7069.14 1134310 210590 446051    0  0  0 1390.15 1444.66 822.558    0 1225.87 1046.92 1802.7 1181.95 2007.09 285.275 1632.1 2327.15    0 608970   759 5000068
  7079.01 1135698 213287 451025    0  0  0 1474.11 1400.13 774.745    0 1305.78 1099.58 2017.98 1118.45 2146.03 178.266 1501.12 2446.85    0 609294   965 5000069
  7088.98 1137013 216208 456215    0  0  0 1258.29 1426.63 790.68    0 1269.75 1063.56 1946.58 1141.38 1891.8  0.000000 1529.2 2279.95    0 609526  1134 5000068
  7099.05 1138397 218717 458872    0  0  0 1402.88 1324.85 782.601    0 1256.71 1016.17 1942.19 1146.53 1961.39 223.032 1545.77 2299.85    0 609701   486 5000068
  7109.04 1139455 221299 442638    0  0  0 1236.49 1300.52 745.774    0 1276.66 1022.76 1860.01 1127.85 1819.24 1039.17 1516.09 2215.83    0 609411   115 5000068
  7109.31 1139445 221165 437450    0  0  0 1377.34 1409.4 707.615    0 1246.43 1092.7 1944.47 1168.53 1963.48 1274.55 1534.47 2301.34    0 609249   584 5000068
  7109.61 1139383 221293 431610    0  0  0 1271.23 1396.92 792.987    0 1316.58 1046.07 1866.81 1198.91 1928.95 978.132 1540.51 2257.88    0 609089  1167 5000069
  7109.91 1139299 221478 423478    0  0  0 1269.43 1449.02 752.305    0 1245.25 1014.33 1960.27 1174.43 1957.73  56.0489 1480.4 2272.11    0 608794  1012 5000069
  7110.17 1139199 221662 413690    0  0  0 1489.5 1408.74 719.149    0 1253.51 1035.63 1924.97 1243.52 2072.46 389.107 1580.38 2415.1    0 608531  1001 5000068
  7110.49 1139047 221321 401456    0  0  0 1325.21 1406.09 762.248    0 1288.04 1030.85 1992.73 1175.52 1962.42 967.057 1500.71 2228.78    0 608090   540 5000068
  7110.77 1138793 220745 389015    0  0  0 1483.29 1428.06 722.684    0 1283.4 1086.51 1952.42 1211.09 1981.17 128.612 1580.84 2247.1    0 607572   629 5000069
  7111.05 1138626 220664 375577    0  0  0 1195.72 1449.44 813.199    0 1283.82 1156.3 1957.09 1266.18 1824.3  0.000000 1641.73 2059.14    0 606994   751 5000068
  7111.35 1138402 220552 363316    0  0  0 1506.37 1479.43 823.267    0 1337.75 1154.37 1950.77 1260.82 2183.9  59.1726 1681.85 2292.49    0 606387  1219 5000069
  7111.64 1138196 220440 351986    0  0  0 1323.07 1482.37 836.838    0 1351.85 1194.59 2009.61 1336.17 1998.63 487.567 1712.74 2103.59    0 605728  1695 5000069
  7111.92 1137959 220312 342299    0  0  0 1462.59 1479.1 806.733    0 1400.86 1208.59 2008.57 1319.95 2172.46 506.503 1629.48 2196.93    0 605003  2239 5000068
  7112.22 1137733 220246 334520    0  0  0 1392.1 1481.23 840.305    0 1404.32 1259.44 2049.63 1389.46 2073.1 173.841 1766.1 2278.52    0 604318  3217 5000068
  7112.51 1137471 220147 327452    0  0  0 1352.79 1633.57 831.238    0 1463.78 1247.43 2082.12 1357.37 2094.35 1239.85 1817.31 2198.32    0 603586  2592 5000068
  7112.78 1137271 220121 321676    0  0  0 1434.56 1621.19 896.868    0 1458.78 1327.53 2109.39 1454.06 2209.17 339.97 1827.26 2298.26    0 602935  1524 5000069
  7113.11 1137046 220024 316008    0  0  0 1426.97 1586.79 874.517    0 1458.06 1317.6 2146.03 1396.13 2184.73 229.01 1846.84 2241.2    0 602284  1494 5000069
  7113.39 1136867 220001 311421    0  0  0 1612.44 1648.75 900.144    0 1490.37 1331.32 2075.28 1464.15 2275.6 393.77 1804.45 2318.9    0 601771  1712 5000068
  7113.68 1136742 220020 307163    0  0  0 1384.99 1696.08 889.539    0 1510.03 1375.95 2177.18 1582.96 2120.82 526.74 1816.08 2189.21    0 601334  1784 5000069
  7113.99 1136624 220012 303666    0  0  0 1395.17 1695.36 916.58    0 1539.4 1398.22 2184.29 1555.54 2272.3 1000.23 1887.55 2250.2    0 600995  1540 5000068
  7114.28 1136510 220046 300728    0  0  0 1457.28 1722.37 906.516    0 1505.7 1415.13 2214.73 1519.4 2186.34 1023.35 1896.22 2169.72    0 600702   961 5000068
  7114.56 1136411 220303 298875    0  0  0 1504.86 1689.88 965.001    0 1543.94 1435.66 2097.74 1576.57 2291.12 239.751 1870.52 2309.46    0 600432  1338 5000068
  7114.87 1136370 220284 296988    0  0  0 1479.19 1699.33 967.876    0 1593.21 1435.33 2183.62 1576.79 2255.28 1295.42 1991.38 2255.07    0 600250  1423 5000068
  7115.15 1136331 220303 295284    0  0  0 1486.3 1707.71 874.101    0 1511.89 1462.75 2164.74 1615.47 2276.38 706.387 1947.41 2147.64    0 600073  1152 5000068
  7115.43 1136273 220328 293893    0  0  0 1493.38 1756.98 927.292    0 1648.1 1429.87 2146.23 1644.68 2337.94  61.9592 1898.06 2320.76    0 599924  1455 5000068
  7115.76 1136240 220250 292109    0  0  0 1357.92 1803.14 950.438    0 1592.85 1404.53 2119.13 1664.44 2255.34 912.886 2010.65 2198.48    0 599710   675 5000069
  7116.02 1136191 220257 290015    0  0  0 1651.36 1780.16 951.868    0 1586.44 1479.34 2179.41 1549.13 2436.69  56.4249 2042.56 2264.22    0 599523   819 5000068
  7116.32 1136096 220283 287306    0  0  0 1475.9 1755.83 908.089    0 1534.46 1499.39 2137.7 1594.76 2159.36 347.31 2024.51 2232.02    0 599227  1025 5000068
  7116.63 1136040 220305 283849    0  0  0 1556.27 1744.16 895.765    0 1525.83 1449.49 2177.88 1671.75 2353.05 117.098 1908.16 2263.86    0 598960   826 5000068
  7116.92 1135937 220301 279323    0  0  0 1416.18 1643.46 941.497    0 1483.44 1377.24 2219.93 1533.56 2254.04 494.514 1898.07 2238.13    0 598627   110 5000069
  7117.2 1135859 220321 274227    0  0  0 1516.94 1781.17 927.899    0 1593.01 1494.05 2170.8 1644.2 2183.3 506.281 2042.41 2284.23    0 598313   609 5000068
  7117.53 1135753 220318 268075    0  0  0 1535.79 1791.51 906.645    0 1625.85 1427.84 2195.69 1589.73 2318.65 1409.85 1951.52 2258.42    0 597973   934 5000068
  7117.79 1135680 220239 261714    0  0  0 1439.48 1801.98 909.367    0 1566.24 1453.86 2147.86 1676.09 2348.83 1477.56 1969.02 2206.28    0 597660   138 5000068
  7118.09 1135567 220206 254869    0  0  0 1525.11 1769.17 929.29    0 1635.84 1447.08 2150.9 1628.75 2280.64 1656.65 1960.4 2194.76    0 597313   566 5000069
  7118.38 1135465 220177 248254    0  0  0 1433.15 1855.97 963.592    0 1583.14 1367.36 2177.57 1686.89 2280.62 391.901 2068.1 2131.08    0 596966   264 5000068
  7118.66 1135347 220194 241287    0  0  0 1611.61 1792.82 886.633    0 1593.08 1460.5 2250.1 1697.13 2427.84 991.343 2036.46 2299.3    0 596636   443 5000069
  7118.95 1135273 220184 234689    0  0  0 1420.88 1740.96 997.566    0 1617.76 1453.64 2090.22 1653.19 2148.16 1219.81 2032.46 2195.88    0 596324  1167 5000069
  7119.27 1135142 220129 227569    0  0  0 1485.58 1740.7 940.336    0 1707.42 1560.81 2122.3 1737.49 2342.08 879.237 2072.54 2285.39    0 595978   321 5000068
  7119.54 1135054 220085 220970    0  0  0 1459.7 1934.89 966.262    0 1660.12 1517.11 2195.14 1699.02 2333.86 1951.71 2029.87 2172.21    0 595674   544 5000068
  7119.86 1134962 220058 214315    0  0  0 1532 1815.73 955.442    0 1664.71 1542.44 2175.07 1660.14 2434.03 1177.54 2029.32 2169.65    0 595319   131 5000068
  7120.17 1134853 220009 207833    0  0  0 1487.56 1822.59 948.835    0 1678.84 1570.28 2163.61 1745.99 2503.03 1746.26 2037.56 2294.49    0 594955   250 5000069
  7120.44 1134754 219967 202121    0  0  0 1442.34 1902.12 992.361    0 1720.94 1588.87 2302.79 1757.11 2336.34 668.143 2085.41 2114.94    0 594618    0 5000068
  7120.76 1134628 219930 196651    0  0  0 1560.68 1937.19 985.607    0 1711.42 1548.1 2288.24 1774.86 2450.95 1191.7 2122.84 2240.82    0 594243    0 5000068
  7121.05 1134511 219915 192052    0  0  0 1458.78 1900.01 1012.2    0 1710.6 1564.49 2297.75 1739.42 2408.63 1637.7 2183.98 2138.18    0 593892    0 5000069
  7121.33 1134436 219831 187491    0  0  0 1649.61 1964.49 1066.36    0 1786.85 1643.91 2332.94 1765.15 2420.16 2410.59 2293.59 2303.44    0 593541   73 5000069
  7121.63 1134303 219792 183784    0  0  0 1558.69 1845.99 1018.34    0 1771.37 1673.91 2290.91 1871 2527.39 1751.58 2197.6 2212.4    0 593165    0 5000069
  7121.93 1134178 219653 179969    0  0  0 1672.37 2039.04 1058.35    0 1819.62 1662.84 2470.37 1914.97 2478.7 1140.88 2300.78 2281.51    0 592764    0 5000069
  7122.2 1134078 219572 176749    0  0  0 1568.62 2025.76 1072.03    0 1808.13 1738.14 2446.06 1890.48 2519.89 1478.93 2293.26 2231.57    0 592374    0 5000069
  7122.53 1133939 219470 173666    0  0  0 1675.67 2052.35 1097.73    0 1920.77 1804.32 2446.05 1886.55 2616.31 1518.15 2310.47 2252.91    0 591933    0 5000068
  7122.82 1133783 219413 170991    0  0  0 1799.92 2118.67 1091.28    0 1898.08 1801.12 2475.43 1939.29 2698.49 2262.76 2389.07 2257.19    0 591509    0 5000069
  7123.11 1133643 219330 168451    0  0  0 1611.32 2093.36 1189.82    0 1919.65 1835.48 2437.91 1980.23 2516.99 2641.13 2438.64 2156.59    0 591036    0 5000068
  7123.43 1133470 219258 166129    0  0  0 1755.27 2185.42 1111.09    0 2089.94 1906.36 2559.95 2130.73 2824.99 2983.87 2568.16 2259.19    0 590547    0 5000068
  7123.73 1133354 218925 163554    0  0  0 1748.68 2338.07 1129.93    0 1943.09 2031.88 2562.08 2054.85 2807.85 2931.62 2622.21 2225.35    0 590035   568 5000069
  7124.01 1133187 218830 161504    0  0  0 1710.55 2365.46 1174.37    0 2119.94 2002.04 2612.26 2206.77 2788.55 2584.42 2707.6 2314.32    0 589524   51 5000069
  7124.34 1132984 218765 159589    0  0  0 1807.64 2405.61 1309.5    0 2088.56 2070.57 2642.86 2268.78 2949.91 3363.58 2767.63 2282.95    0 588934   542 5000069
  7124.61 1132811 218682 157727    0  0  0 1881.25 2500.71 1213.43    0 2237.86 2250.8 2707.54 2341.03 2945.31 3785.11 2823.19 2362.52    0 588326    0 5000068
  7124.89 1132603 218586 155987    0  0  0 1900.38 2498.85 1271.9    0 2343.5 2270.76 2825.65 2524.32 3103.99 2448.55 3105.81 2340.38    0 587788    0 5000069
  7125.22 1132385 218412 154035    0  0  0 1855.37 2563.56 1300.52    0 2332.29 2327.7 3001.52 2534.2 3119.37 2977.02 3094.26 2306.02    0 587112    0 5000068
  7125.49 1132169 218346 152325    0  0  0 2022.31 2750.07 1477.75    0 2461.47 2386.35 3031.25 2625.88 3392.08 2583.73 3189.86 2380.93    0 586471    0 5000069
  7125.8 1131949 218235 150373    0  0  0 2095.06 2862.48 1535.97    0 2558.14 2553.65 3091.58 2829.88 3381.42 1997.18 3229.28 2299.26    0 585788    0 5000069
  7126.11 1131742 218171 148503    0  0  0 2194.22 2863.36 1456.88    0 2681.91 2578.78 3173.13 2878.1 3510.48 1103.1 3316.08 2465.26    0 585160    0 5000068
  7126.4 1131541 218128 146570    0  0  0 2094.63 2957.2 1516.77    0 2599.52 2727.8 3230.7 2901.36 3574.95 2360.91 3587.67 2498.38    0 584497    0 5000068
  7126.7 1131333 218029 144485    0  0  0 2269.53 3068.25 1606.09    0 2676.68 2806.27 3328.9 2937.11 3657.7 2752.33 3621.38 2519.92    0 583891    0 5000069
  7127.02 1131155 218065 142324    0  0  0 2315.7 3231.98 1639.47    0 2824.1 2875.47 3420.63 3098.35 3751.33 2545.1 3787.35 2406.6    0 583316    0 5000069
  7127.3 1131043 217989 140157    0  0  0 2361.48 3235.03 1668.32    0 2964.58 2996.6 3440.51 3193.41 3803.18 2615.14 3866.32 2504.11    0 582836   264 5000069
  7127.62 1130961 217979 137784    0  0  0 2462.04 3487.44 1756.9    0 3062.74 3097.14 3618.72 3354.11 4035.04 3036.52 4067.21 2533.62    0 582437   113 5000068
  7127.92 1130882 217949 135530    0  0  0 2516.33 3532.36 1838.32    0 3105.45 3307.52 3601.66 3424.95 4094.37 2853.7 4161.57 2436.86    0 582161    0 5000068
  7128.2 1130843 218026 133185    0  0  0 2635.11 3677.5 1818.24    0 3247.36 3369.2 3706.69 3574.43 4348.66 4671.19 4223.48 2611.2    0 581980   167 5000069
  7128.51 1130842 218104 131152    0  0  0 2533.19 3686.71 1900.41    0 3269.13 3397.39 3805 3559.99 4288.42 4127.84 4352.06 2641.52    0 581884   386 5000069
  7128.82 1130830 218108 129007    0  0  0 2699.11 3869.33 2009.13    0 3503.29 3715.47 3982.28 3826.31 4542.14 4476.34 4583.46 2594.82    0 581807    0 5000069
  7129.09 1130742 218415 127459    0  0  0 2578.26 3869.05 1986.87    0 3527.37 3685.94 4128.91 3987.83 4605.58 2922.49 4779.56 2640.11    0 581649    0 5000068
  7129.42 1130721 218412 125778    0  0  0 2697.56 3889.83 2064.04    0 3685.45 3924.59 4167.94 3972.81 4725.75 2647.74 4849.21 2687.6    0 581530    0 5000068
  7129.71 1130651 218415 124536    0  0  0 2860.32 4080.55 2095.09    0 3724.63 3872.63 4338.14 4106.42 4949.22 4052.79 4935.23 2732.85    0 581323    0 5000069
  7130 1130558 218290 123479    0  0  0 2984.18 4173.26 2107.63    0 3728.28 3986.08 4277.35 4174.96 4859.63 3517.14 5084.22 2761.9    0 581001    0 5000069
  7130.32 1130476 218257 123006    0  0  0 3015.58 4373.58 2173.05    0 3795.52 4207.78 4601.51 4250.65 4925.63 3366.35 5306.16 2791.36    0 580629    0 5000068
  7130.61 1130321 218152 123012    0  0  0 2837.06 4431.86 2188.62    0 3838.05 4139.86 4420.71 4485.29 5059.63 3626.91 5144.19 2777.21    0 580165   81 5000069
  7130.91 1130112 218139 123525    0  0  0 3041.34 4567.05 2300.72    0 4003.4 4186.93 4425.9 4415.28 5066.37 3008.92 5491.6 2810.38    0 579628   23 5000068
  7131.22 1129962 218036 124382    0  0  0 3018.12 4494.41 2375.81    0 4031.94 4210.94 4586.55 4504.15 5195.39 5463.91 5491.92 2837.58    0 579108    0 5000068
  7131.51 1129829 217904 125597    0  0  0 3172.32 4565.31 2336.47    0 4061.71 4452.43 4699.68 4570.31 5233.75 3580.56 5419.44 2835.81    0 578564    0 5000069
  7131.8 1129690 217736 126970    0  0  0 3129.94 4476.69 2306.05    0 3981.42 4502.49 4801.21 4659.95 5332.45 3040.14 5318.32 2797.12    0 578098    0 5000069
  7132.13 1129543 217678 128780    0  0  0 3155.03 4632.71 2509.54    0 4263.09 4455.96 4793.57 4714.66 5287.69 3696.63 5548.2 2813.27    0 577623    0 5000069
  7132.4 1129456 217683 130630    0  0  0 3261.51 4635.83 2580.12    0 4134.79 4456.06 4831.39 4687.03 5398.89 3055.51 5583.26 3017.15    0 577250    0 5000069
  7132.71 1129367 217692 132593    0  0  0 3266.16 4625.62 2344.35    0 4109.04 4500.04 4767.7 4627.93 5266.99 3538.84 5623.25 2895.55    0 576888    0 5000069
  7133.03 1129340 217683 134452    0  0  0 3162.66 4721.49 2346.37    0 4128.61 4435.84 4718.08 4807.02 5381.35 3457.48 5676.07 2808.54    0 576662    0 5000068
  7133.32 1129285 217683 136310    0  0  0 3129.05 4421.88 2375.08    0 4074.35 4322.88 4840.38 4685.8 5398.58 3141.64 5656.93 2904.66    0 576459    0 5000069
  7133.63 1129297 217786 138050    0  0  0 3252.32 4747.16 2525.26    0 4008.6 4443.92 4708.2 4651.83 5473.98 2859.25 5767.69 2866.77    0 576318    0 5000068
  7133.94 1129306 217885 139631    0  0  0 3208 4687.97 2299.59    0 4100.13 4462.78 4675.89 4791.06 5388.74 3485.19 5623.99 2764.65    0 576208    0 5000069
  7134.23 1129354 217864 140980    0  0  0 3165.21 4550.44 2414.88    0 3976.67 4540.3 4808.78 4762.19 5316.73 4806.43 5598.33 2919.19    0 576144    0 5000068
  7134.54 1129422 217856 142066    0  0  0 3137.74 4585.31 2359.58    0 4006.56 4504.93 4672.84 4604.07 5447.68 3056.74 5619.37 2843.54    0 576102    0 5000068
  7134.85 1129490 217890 143041    0  0  0 3064.93 4619.86 2392.41    0 4223.07 4437.7 4721.8 4569.13 5448.56 2829.29 5391.61 2713.38    0 576122    0 5000069
  7135.12 1129547 217937 143834    0  0  0 3205.1 4546.6 2367.84    0 4115.24 4304.45 4857.58 4636.36 5258.01 2608.82 5418.52 2839.72    0 576130    0 5000068
  7135.45 1129599 217979 144388    0  0  0 3101.64 4652.94 2375.48    0 4076.33 4279.94 4686.34 4622.86 5253.35 2711.14 5581.55 2753.55    0 576128    0 5000068
  7135.74 1129682 218059 144818    0  0  0 3072.27 4540.68 2363.28    0 4184.09 4475.86 4642.09 4621.31 5245.31 4045.51 5541.18 2973.58    0 576183    0 5000068
  7136.01 1129732 218178 145107    0  0  0 3107.58 4523.43 2362.2    0 4192.49 4349.17 4725.68 4462.75 5268.43 4609.26 5546.31 2665.89    0 576211    0 5000068
  7136.35 1129816 218262 145154    0  0  0 3035.38 4531.99 2356.2    0 3958.83 4371.11 4688.66 4466.45 5245 2601.27 5446.66 2804.09    0 576267    0 5000068
  7136.63 1129886 218337 145107    0  0  0 3007.58 4474.56 2300.29    0 4087.06 4422.89 4617.04 4588.53 5179.37 3696.8 5432.97 2699.1    0 576313    0 5000069
  7136.94 1129939 218413 144798    0  0  0 3025.95 4620.55 2290.58    0 3960.48 4301.58 4559.15 4671.28 5235.99 3430.37 5359.58 2787.8    0 576387    0 5000069
  7137.26 1130003 218545 144591    0  0  0 3059.35 4464.06 2341.81    0 4075.78 4292.87 4574.06 4458.82 5109.67 2876.85 5437.81 2716.52    0 576442    0 5000068
  7137.56 1130089 218623 144036    0  0  0 3019.44 4560.74 2278.33    0 4014.31 4276.23 4526.37 4419 5124.12 4450.52 5496.13 2738.44    0 576506    0 5000068
  7137.85 1130185 218688 143432    0  0  0 2923.45 4539.69 2234.2    0 4060.66 4269.27 4689.45 4480.38 5131.91 4658.84 5542.75 2740.27    0 576575    0 5000069
  7138.17 1130299 218530 142584    0  0  0 3040.73 4438.64 2317.93    0 4040.94 4367.83 4678.06 4498.15 5239.63 4287.07 5432.42 2723.55    0 576654    0 5000068
  7138.46 1130399 218592 141901    0  0  0 2878.7 4546.97 2371.97    0 4042.68 4262.04 4542.04 4502.63 5052.01 4201.02 5296.84 2785.88    0 576719    0 5000069
  7138.75 1130458 218660 141208    0  0  0 2849.73 4443.73 2373.47    0 3914.99 4179.76 4631.77 4357.94 5083.03 3286.55 5494.42 2721.16    0 576783    0 5000068
  7139.08 1130524 218739 140551    0  0  0 2927.06 4406.08 2286.01    0 3910.65 4132.33 4493.72 4360.39 5246.27 3580.27 5449.61 2717.1    0 576825    0 5000069
  7139.35 1130579 218833 139980    0  0  0 2923.84 4419.73 2224.72    0 3852.73 4158.76 4435.12 4358.45 5063.14 2661.57 5309.19 2724.29    0 576887    0 5000068
  7139.68 1130646 218949 139521    0  0  0 2923.63 4452.33 2255.79    0 3809.87 4285.22 4551.77 4443.36 5068.23 2826.76 5458.74 2735.27    0 576941    0 5000069
  7139.98 1130757 219026 139060    0  0  0 2984.45 4276.86 2268.82    0 3834.66 4244.88 4431.41 4342.76 5123.58 2559.71 5262.05 2777.8    0 577000    0 5000068
  7140.26 1130838 218992 138626    0  0  0 2975.03 4412.02 2236.3    0 3912.02 4125.97 4481.1 4477 5100.61 2493.8 5254.65 2688.05    0 577041    0 5000069
  7140.6 1130921 219078 138387    0  0  0 2931.4 4324.13 2235.89    0 3684.64 4032.41 4480.2 4301.79 4978.69 4797.62 5309.48 2780.06    0 577092    0 5000069
  7140.9 1131445 219594 138522    0  0  0 2799.51 4218.9 2265.91    0 3793.96 4112.44 4444.95 4397.21 4978.67 3861.02 5087.46 2631.34    0 578282    0 5000069
  7141.2 1132567 220707 139158    0  0  0 2960.26 4269.31 2272    0 3728.59 4038.46 4501.18 4220.23 4981.81 5727.36 5119.9 2824.36    0 581001    0 5000069
  7141.52 1132649 220795 139305    0  0  0 2840.39 4283.66 2174.6    0 3738.63 4052.12 4389.12 4267.74 4884.37 3625.22 5122.57 2724.91    0 581142    0 5000068
  7141.8 1135038 223024 140778    0  0  0 2894.55 4262.69 2302.13    0 3715.1 4057.09 4461.88 4208.66 4937.76 4655.51 5173.77 2772.15    0 587018   233 5000069
  7142.1 1138712 226256 142856    0  0  0 2766.83 4323.31 2227.74    0 3865.76 4084.24 4523 4264.82 4746.66 4686.47 5143.23 2786.88    0 596222  1723 5000068
  7142.41 1139304 226778 143305    0  0  0 2952.21 4252.04 2218.79    0 3806.97 4087.08 4451.19 4272.25 5003.95 5153.97 5208.57 2820.32    0 597720  2297 5000069
  7142.71 1139658 227214 143828    0  0  0 2802.85 4383.7 2236.72    0 3803.7 4080.59 4487.85 4260.32 4899.53 4517.47 5069.75 2759.61    0 598590  1915 5000068
  7142.99 1140592 228139 144587    0  0  0 2934.54 4239.23 2240.68    0 3885.04 4001.7 4523.56 4265.19 4838.94 4915.23 5056.47 2812.6    0 600930   738 5000069
  7143.31 1141351 228916 145253    0  0  0 2910.27 4061.32 2232.4    0 3762.09 3970.87 4502.37 4136.01 4895.01 3703.82 5176.05 2924.96    0 602892  1752 5000069
  7143.61 1141460 229068 145418    0  0  0 2748.89 4205.86 2144.21    0 3737.89 3969.11 4518.6 4145.15 4898.32 6018.71 5127.23 2684.03    0 603055  1776 5000069
  7143.91 1141465 229408 145803    0  0  0 2802.24 4105.11 2188.15    0 3771.02 3950.04 4373.76 4145.43 4884.9 5361.93 5015.34 2778.21    0 603109   322 5000068
  7144.25 1141580 229523 145769    0  0  0 2826.24 4161.44 2181.5    0 3812.93 3986.67 4418.02 4307.47 4705.55 4224.58 4975.05 2754.83    0 603246  1068 5000069
  7144.53 1141641 229637 145643    0  0  0 2840.22 4198.38 2171.29    0 3701.46 3851.55 4319.97 4053.19 4838.63 4533.15 4953.34 2796.04    0 603357  1657 5000068
  7144.83 1141720 229692 145413    0  0  0 2705.42 4260.1 2066.89    0 3699.1 3835.54 4131.43 4078.55 4738.43 5702.51 4865.42 2741.34    0 603503  1980 5000069
  7145.16 1141811 229816 145033    0  0  0 2904.39 4048.28 2211.82    0 3631.4 3913.58 4400.55 4060.4 4780.78 5836.28 4996.62 2801.09    0 603651  1972 5000068
  7145.43 1141891 229989 144653    0  0  0 2789.43 4052.03 2069.84    0 3626.92 3885.82 4198.67 4041.7 4589.78 4986.82 4834.08 2663.78    0 603798  1290 5000068
  7145.73 1141950 230190 144212    0  0  0 2717.15 4129.75 2064.49    0 3587.81 3710 4128.67 4019.29 4570.93 4532.59 4799.02 2642.37    0 603886   913 5000069
  7146.05 1142076 230196 143507    0  0  0 2717.04 4101.26 2086.01    0 3598.42 3623.72 4270.63 4132.08 4676.6 5161.52 4786.22 2627.03    0 604054  1645 5000069
  7146.32 1142172 230303 142774    0  0  0 2626.72 3965.89 2004.21    0 3654.19 3767 4079.31 4045.95 4527.59 5199.59 4836.12 2623.42    0 604175  1826 5000068
  7146.65 1142279 230490 142010    0  0  0 2691.41 4041.62 2069.55    0 3735.01 3854.59 4156.96 3977.58 4648.52 4818.06 4647.34 2730.05    0 604340  1850 5000069
  7146.95 1142380 230539 141180    0  0  0 2619.61 3943.23 2023.46    0 3506.26 3875.15 4153.77 3848.05 4594.05 4019.82 4685.31 2690.69    0 604494  2419 5000068
  7147.23 1142477 230655 140345    0  0  0 2645.83 4073.95 1972.13    0 3542.6 3704.78 4178.45 3970.74 4667.37 5506.79 4740.23 2742.32    0 604638  2559 5000069
  7147.56 1142577 230790 139580    0  0  0 2585.1 3946.78 2015.09    0 3473.59 3691.22 4201.13 3792.25 4367.54 5215.01 4716.63 2589.89    0 604767  2474 5000069
  7147.86 1142670 230885 138785    0  0  0 2671.87 3963.87 2051.39    0 3639.82 3817.09 4116.45 3974.14 4553.56 4460.76 4659.24 2645.49    0 604892  2177 5000068
  7148.14 1142758 231033 138115    0  0  0 2691.19 3947.2 2173.85    0 3573.22 3637.49 4047.94 4081.09 4547.06 4579.08 4813.73 2670.28    0 605034  3378 5000069
  7148.47 1142845 231120 137455    0  0  0 2775.02 3942.94 2045.26    0 3585.07 3722.85 4203.37 3870.03 4464.07 4743.7 4644.87 2666.67    0 605146  3257 5000069
  7148.75 1142935 231186 136844    0  0  0 2725.24 3924.38 2101.88    0 3498.43 3735.21 4119.29 4025.15 4637.74 5678.28 4660.57 2615.3    0 605236  2698 5000069
  7149.04 1143021 231260 136232    0  0  0 2674.66 3972.95 2048.34    0 3563.22 3658.69 4042.93 3807.55 4464.6 4891.94 4574.04 2587.95    0 605335  2482 5000068
  7149.35 1143095 231306 135767    0  0  0 2656.45 3943.56 2078.55    0 3528.98 3648.05 4016.76 3812.87 4419.44 4707.67 4701.62 2727.24    0 605403  2661 5000068
  7149.63 1143154 231385 135396    0  0  0 2541.57 3924.31 2072.82    0 3531.31 3555.72 4070.67 3864.12 4353.19 5374.94 4503.77 2694.3    0 605465  2988 5000069
  7149.92 1143220 231464 134998    0  0  0 2657.22 3883.39 1984.15    0 3528.47 3645.67 4165.53 3871.91 4452.75 5022.7 4555.38 2722.06    0 605520  3088 5000069
  7150.24 1143288 231547 134676    0  0  0 2549.28 3956.85 1946.63    0 3410.96 3617.09 4020.45 3679.29 4421.91 4470.04 4575.67 2638.91    0 605573  2984 5000069
  7150.52 1143317 231600 134426    0  0  0 2553.61 3882.89 1953.95    0 3402.67 3565.15 3994.67 3893.11 4500.14 3882.49 4598.72 2608.8    0 605580  3167 5000068
  7150.83 1143381 231707 134168    0  0  0 2653.56 3821.42 2118.75    0 3495.03 3526.11 4172.75 3834.52 4425.86 3593.05 4639.58 2628.98    0 605615  2451 5000068
  7151.15 1143423 231729 133872    0  0  0 2580.4 3896.7 1916.65    0 3382.62 3594.13 4016.09 3887.48 4400.1 4668.16 4551.71 2598.69    0 605616  2917 5000068
  7151.43 1143480 231710 133643    0  0  0 2539.59 3770.31 1985.12    0 3399.99 3609.57 3968.12 3761.85 4451.61 4204.94 4616.65 2647.29    0 605621  3751 5000069
  7151.74 1143513 231816 133463    0  0  0 2485.42 3861.9 1885.39    0 3317.66 3545.07 3982.73 3739.56 4234.05 4091.68 4521.94 2536.55    0 605606  3636 5000068
  7152.05 1143559 231858 133292    0  0  0 2801.79 3765.75 1949.72    0 3275.39 3530.12 4003.41 3775.47 4340.19 4698.9 4412.66 2734.31    0 605597  4234 5000069
  7152.32 1143584 231901 133158    0  0  0 2452.76 3762.36 1939.88    0 3344.33 3477.29 3945.87 3905.49 4337.74 4802.06 4470.31 2614.36    0 605582  4177 5000069
  7152.63 1143637 231903 133023    0  0  0 2484.54 3839.33 2014.16    0 3373.16 3526.67 4005.2 3864.24 4347.44 4814.93 4538.1 2728.94    0 605569  3754 5000069
  7152.94 1143694 231980 132958    0  0  0 2434.06 3825.69 1876.06    0 3391.41 3559.2 4093.41 3697.24 4330.78 4881.85 4449.23 2563.7    0 605547  4020 5000069
  7153.23 1143797 231740 132709    0  0  0 2454.33 3773.78 1966.54    0 3325.91 3428.08 3961.92 3756.93 4376.88 4622.21 4570.94 2608.6    0 605561  4102 5000069
  7153.53 1143823 231832 132766    0  0  0 2507.05 3744.45 1949.65    0 3415.93 3536.25 3982.85 3738.86 4246.9 5240.81 4485.2 2647.18    0 605527  3448 5000069
  7153.84 1143840 231893 132811    0  0  0 2507.29 3778.06 1984.05    0 3265.4 3468.14 3958.44 3778.6 4349.18 4034 4407.65 2541.32    0 605489  3130 5000069
  7156.15 1144140 232617 134486    0  0  0 2561.17 3689.81 1864.21    0 3350.1 3419.63 3736.93 3766.32 4166.32 3254.43 4365.42 2586.53    0 605479  1907 5000068
  7158.55 1144356 233338 135579    0  0  0 2416.25 3644.81 1811.75    0 3349.91 3359.42 3792.73 3595.53 4078.78 5473.73 4256.49 2499.92    0 605207  1103 5000068
  7161.03 1144373 233992 136323    0  0  0 2502.18 3626.1 1832.07    0 3165.58 3231.47 3817.65 3533.57 4008.59 4705.65 4181.35 2576.2    0 604541  1366 5000069
  7163.61 1144404 234597 138071    0  0  0 2318.38 3526.55 1787.34    0 3298.63 3162.08 3838.61 3506.25 4049.26 4992.55 4191.66 2328.42    0 603679  1287 5000068
  7166.27 1144317 234753 139448    0  0  0 2445.86 3591.7 1866.23    0 3355.92 3406.25 3831.98 3671.44 4139.47 4486.96 4190.09 2544.29    0 602607  2028 5000069
  7169.01 1144421 235020 140614    0  0  0 2441.02 3697.58 1854.79    0 3293.34 3382.33 4036.5 3765.42 4301.34 6112.46 4383.38 2448.02    0 601717  2524 5000068
  7171.85 1144716 235670 143762    0  0  0 2577.5 3855.19 1889.06    0 3418.83 3551.79 4060.41 3870.41 4353.91 5075.14 4574.55 2611.07    0 601401  2615 5000069
  7174.73 1145088 236718 149307    0  0  0 2504.69 3923.35 1969.47    0 3547.97 3779.89 4066.75 3938.63 4471.91 5741.83 4642.38 2479.99    0 601429  2056 5000069
  7177.68 1145441 238040 155347    0  0  0 2800.18 3956.3 2125.35    0 3601.72 3779.96 4246.28 4104.5 4532.67 5359.53 4889.52 2532.68    0 601439  1787 5000068
  7180.76 1145929 238801 157388    0  0  0 2579.91 4186.02 2041.99    0 3532.27 3849.81 4236.34 4113.32 4427.8 5246.88 4834.29 2577.59    0 601488  1635 5000068
  7183.89 1146478 239682 155770    0  0  0 2635.69 4142.78 2076.16    0 3670.66 3881.24 4307.7 4112.6 4527.02 5535.04 4893.12 2471.28    0 601691  1479 5000069
  7187.17 1147063 240627 151310    0  0  0 2647.86 4173.43 2138.1    0 3642.18 3915.75 4261.24 4198.48 4524.49 6055.12 4823.25 2591.78    0 602039  2631 5000069
  7190.49 1147591 242038 146294    0  0  0 2642.06 4235.35 2115.2    0 3669.39 3930.54 4403.61 4109.84 4496.48 6452.05 4950.55 2519.63    0 602426  2703 5000068
  7193.89 1148159 243429 143166    0  0  0 2565.33 4167.42 2214.89    0 3758.69 3963.81 4319.02 4130.75 4473.03 6591.67 4891.66 2623.85    0 602930  3211 5000068
  7197.31 1148792 244719 146761    0  0  0 2665.21 4282.63 2136.79    0 3766.87 3991.11 4456.14 4321.82 4623.99 5560.22 5037.29 2493.17    0 603480  3490 5000069
  7200.79 1149401 245562 153856    0  0  0 2664.54 4150.16 2107.83    0 3819.57 3936.16 4315.4 4264.07 4521.78 5464.29 4980.7 2499.38    0 603848  2455 5000069
  7204.37 1149903 246978 162644    0  0  0 2682.75 4167.43 2093.82    0 3856.42 3869.29 4411.94 4190.23 4538.05 6176.47 4940.98 2356.33    0 603890  1189 5000068
  7208.01 1150212 248122 166011    0  0  0 2632.79 4140.1 2134.69    0 3695.63 3839.35 4362.99 4263.79 4450.28 6283.13 5022.49 2427.57    0 603685   477 5000069
  7211.68 1150518 249263 155347    0  0  0 2560.9 4216.75 2115.43    0 3738.73 3907.92 4507.46 4140.95 4548.8 5811.65 4970.96 2356.13    0 603315   747 5000069
  7215.42 1151028 250064 138052    0  0  0 2571.14 4176.93 2085.5    0 3590.61 3782.43 4288.73 4164.69 4385.72 6309.05 4870.31 2344.51    0 603180  1862 5000069
  7219.25 1151582 251362 129023    0  0  0 2571.15 4127.76 1987.84    0 3631.16 3711.85 4167.53 3999.1 4463.6 6196.99 4844.03 2427.92    0 603311  1793 5000069
  7223.21 1152199 253155 133267    0  0  0 2534.33 4062.51 1999.43    0 3619.94 3731.42 4183.9 3957.55 4311.01 5267.65 4785.77 2412.8    0 603624  2017 5000068
  7227.23 1152788 254562 146895    0  0  0 2489.71 4081.07 2034.63    0 3670.64 3637.12 4222.22 4051.27 4263.78 5760.6 4631.61 2421.02    0 603879  2414 5000068
  7231.29 1153362 255544 162294    0  0  0 2468.1 4101.18 2111.29    0 3563.13 3878.56 4180.2 4067.28 4340.6 3652.78 4787.78 2324.5    0 603879  2785 5000069
  7235.47 1153764 256622 173674    0  0  0 2520.45 4119.52 2085.77    0 3578.09 3903.17 4279.57 4101.38 4310.82 5083.8 4841.81 2310.57    0 603397  2099 5000069
  7239.7 1154094 258086 176555    0  0  0 2575.41 4172.51 2047.25    0 3640.06 3782.86 4267.77 4255.31 4297.56 6124.53 4822.92 2409.55    0 602931  2919 5000068
  7244.03 1154684 259636 172369    0  0  0 2501.49 4087.98 2173.68    0 3654.3 3895.56 4326.1 4088.76 4480.29 5623.65 4913.13 2395.02    0 603084  2953 5000068
  7248.45 1155347 261191 168691    0  0  0 2527.16 4211.16 2094.96    0 3783.06 3991.47 4352.83 4106.8 4495.12 6631.71 5024.74 2366.52    0 603360  2863 5000069
  7252.97 1156051 262860 171296    0  0  0 2542.72 4522.5 2152.45    0 3797.32 3967.95 4323.27 4230.6 4480.08 7137.7 4981.98 2339.26    0 603700  2110 5000069
  7257.55 1156719 264831 174010    0  0  0 2550.24 4359.89 2177.99    0 3834.71 4000.06 4518.39 4458.38 4396.55 6813.14 5118.01 2263.48    0 604030  2896 5000068
  7262.19 1157483 266529 171558    0  0  0 2683.08 4290.97 2222.93    0 3734.41 4031.37 4566.91 4357.39 4547.24 5582.82 5091.74 2334.37    0 604435  3595 5000069
  7266.89 1158172 268050 169308    0  0  0 2627.82 4349 2211.79    0 3902.93 4067.57 4590.42 4516.98 4672.06 6098.39 5137.03 2303.07    0 604591  2518 5000069
  7271.65 1158691 269700 164549    0  0  0 2585.83 4502.39 2247.07    0 3924.68 4001.06 4525.83 4451.23 4593.86 5042.45 5142.86 2315.83    0 604443  2496 5000068
  7276.55 1159258 271357 161518    0  0  0 2660.1 4467.23 2303.81    0 3981.06 4156.03 4448.76 4438.28 4709.09 6899.06 5190.18 2325.5    0 604326  2722 5000069
  7281.5 1159927 272884 158878    0  0  0 2549.27 4502.46 2276.57    0 3931.44 4168.7 4565.32 4531.38 4574.3 6257.67 5016.08 2364.12    0 604310  2798 5000069
  7286.6 1160585 274869 155928    0  0  0 2594.31 4518.73 2262.67    0 3903.22 4174.01 4564.53 4415.47 4551.87 5049.65 5348.11 2206.76    0 604360  2851 5000068
  7291.74 1161367 276720 160093    0  0  0 2637.58 4387.56 2262.61    0 3946.73 4109.82 4585.32 4512.43 4531.99 5958.92 5204.6 2281.47    0 604665  3623 5000069
  7296.97 1161961 278335 172093    0  0  0 2551.14 4483.22 2215.23    0 3901.62 4243.89 4549.01 4272.65 4457.38 6354.32 5280.13 2258.99    0 604482  3921 5000069
  7302.23 1162784 280345 182162    0  0  0 2532.84 4494.07 2166.49    0 3781.81 4039.39 4467.07 4372.63 4553.06 7341.7 5130.65 2249.6    0 604839  3213 5000068
  7307.58 1163462 282324 187878    0  0  0 2544.08 4300.09 2227.88    0 3865.5 4209.66 4383.62 4409.54 4470.7 6455.51 5366.83 2232.38    0 604864  3485 5000068
  7312.98 1164106 284444 189313    0  0  0 2480.11 4432.42 2218.68    0 4001.5 4090.45 4500.78 4359.65 4705.83 6447.42 5177.92 2215.25    0 604819  3507 5000068
  7318.49 1164789 286203 190374    0  0  0 2521.59 4386.19 2285.64    0 3839.61 4174.96 4503.76 4374.43 4572.14 5931.59 5311.31 2286.87    0 604644  2864 5000068
  7324.07 1164885 287229 190598    0  0  0 2549.6 4495.23 2178.92    0 3900.24 4210.44 4507.99 4478.57 4590.98 6522.2 5332.34 2151.79    0 603292  3010 5000069
  7329.82 1163522 286956 191085    0  0  0 2566.63 4471.45 2186.19    0 3965.16 4075.94 4538.71 4364.6 4475.83 6609.96 5180.73 2234.38    0 597708  3032 5000069
  7335.62 1165600 290520 196141    0  0  0 2441.18 4627.33 2255.83    0 3962.11 4298.89 4582.66 4566.64 4563.54 6526.92 5274.2 2206.98    0 600644  3540 5000069
  7341.43 1168177 295248 197967    0  0  0 2563.47 4549.03 2271.85    0 4020.8 4190.68 4523.68 4505.82 4681.85 7008.6 5384.38 2155.02    0 605596  3596 5000068
  7347.36 1168932 297279 191995    0  0  0 2592.32 4628.4 2322.35    0 4039.88 4177.31 4595.65 4532.02 4691 6248.3 5302.75 2205.88    0 605588  3121 5000069
  7353.3 1169669 299342 186013    0  0  0 2538.79 4677.81 2293.46    0 4019.94 4352.42 4761.44 4684.23 4590.35 6400.85 5520.8 2104.86    0 605577  3317 5000069
  7359.3 1170460 301494 181759    0  0  0 2643.59 4660.74 2250.02    0 4037.41 4260.65 4885.92 4680.33 4710.6 6220.57 5417.32 2050.45    0 605635  2959 5000068
  7365.32 1171194 303775 180397    0  0  0 2566.34 4751.26 2332.18    0 4131.59 4291.12 4656.27 4654.14 4707.74 5754.84 5459.16 2127.36    0 605708  3579 5000068
  7371.51 1171961 306148 185032    0  0  0 2717.12 4748.4 2329.91    0 4112.4 4446.6 4780.55 4693.66 4650.34 377.543 5499.35 2103.84    0 605694  2995 5000068
  7377.77 1172754 308679 197751    0  0  0 2512.72 4744.97 2425.84    0 4195.86 4276.04 4664.58 4630.03 4704.61 167.877 5404.61 2124.27    0 605725  3160 5000068
  7384.01 1173650 310711 210817    0  0  0 2655.2 4707.22 2294.16    0 4112.2 4354.48 4707.47 4760.65 4735.49 507.305 5459.31 2101.45    0 605746  3526 5000069
  7390.36 1174476 313256 213689    0  0  0 2678.57 4727.21 2347.27    0 4182.62 4382.59 4733.91 4602.5 4720.68 3090.06 5546.34 2148.31    0 605756  3385 5000068
  7396.85 1175315 315969 212531    0  0  0 2592.83 4832.72 2298.26    0 4137.66 4363.5 4801.86 4797.78 4588.6 7348.08 5586.82 2119.13    0 605842  3166 5000068
  7403.36 1176143 318456 213669    0  0  0 2650.8 4687.89 2249.41    0 4286.01 4484.42 4669.26 4807.25 4903.06 7010.12 5391.03 2109.1    0 605803  3438 5000069
  7409.93 1176579 320859 214739    0  0  0 2609.81 4867.37 2377.75    0 4182.57 4520.52 4873.93 4783.4 4797.09 7376.5 5525.23 2135.84    0 605264  3503 5000069
  7416.48 1178054 323925 215838    0  0  0 2653.21 4952.01 2356.87    0 4352.97 4410.55 4830.98 4805.14 4823.81 6763.56 5607.15 2151.22    0 606406  4263 5000069
  7423.14 1178837 326697 219241    0  0  0 2598.16 4842.62 2393.77    0 4230.1 4566.4 4849.1 4935.55 4876.26 6675.75 5552.62 2053.75    0 606307  3668 5000068
  7429.99 1179651 329371 222194    0  0  0 2777.71 4785.42 2415.65    0 4188.21 4423.3 4763.85 4916.13 4976.56 7299.49 5613.03 2116.55    0 606226  4329 5000068