File: example/Fe/Fe_200_05_01.xdi
# XDI/1.0 GSE/1.0
# Scan-start_time: 2024-10-02T19:22:59
# Column.1: energy eV
# Column.2: I0_eh2
# Column.3: I1_eh2
# Column.4: IX_eh2
# Column.5: IR_eh2
# Column.6: c8
# Column.7: c9
# Column.8: fluo01
# Column.9: fluo02
# Column.10: fluo03
# Column.11: fluo04
# Column.12: fluo05
# Column.13: fluo06
# Column.14: fluo07
# Column.15: fluo08
# Column.16: fluo09
# Column.17: fluo10
# Column.18: fluo11
# Column.19: fluo12
# Column.20: fluo13
# Column.21: I0_eh1
# Column.22: I1_eh1
# Column.23: IX_eh1
# Mono.name: Si 111
# Mono.d_spacing: 3.134692
# Mono.notes: LNT cooled
# Beamline.name: BM08-LISA
# Facility.name: ESRF
# Facility.xray_source: Bending magnet
# ---------
# BraggEnergy I0_eh2 I1_eh2 IX_eh2 IR_eh2 c8 c9  fluo01  fluo02   fluo03 fluo04  fluo05  fluo06  fluo07  fluo08  fluo09   fluo10  fluo11  fluo12 fluo13 I0_eh1 I1_eh1 IX_eh1
  6969.77 1123140 188045 395196    0  0  0 2026.97 1783.9 1187.83    0 1805.49 1516.34 2293.8 1329.8 2965.58 4842.25 2141.2 2885.56    0 615811    0 5000069
  6979.58 1124570 190493 400445    0  0  0 1867.45 1611.07 1133.22    0 1644.27 1434.1 2196.09 1328.23 2580.79 4803.38 1954.29 2760.61    0 616161    0 5000069
  6989.42 1126037 192942 405917    0  0  0 1937.98 1681.63 1071.08    0 1639.01 1405.11 2176.48 1305.34 2752.92 5496.26 1924.67 2839.72    0 616588    0 5000069
  6999.42 1127476 195534 411466    0  0  0 1725.37 1570.15 1055.6    0 1573.74 1335.34 2231.95 1296.63 2512.45 3753.01 1959.33 2660.41    0 616954    0 5000069
  7009.43 1129027 198207 417171    0  0  0 1826.55 1517.99 984.444    0 1627.39 1331 2128.29 1302.83 2616.5 3222.07 1801.73 2704.55    0 617488    0 5000069
  7019.43 1130444 200978 423075    0  0  0 1528.77 1524.48 927.988    0 1490.04 1210.28 2088.72 1228.06 2346.65 2539.18 1758.88 2552.07    0 617740    0 5000069
  7029.35 1130860 202069 424655    0  0  0 1741.22 1444.19 949.509    0 1446.89 1119.49 1953.27 1257.99 2445.96 1576.68 1686.86 2655.08    0 615814    0 5000069
  7039.33 1133413 206290 433951    0  0  0 1421.96 1476.51 923.997    0 1358.79 1172.52 2086.74 1169.46 2076.95 2606.15 1701.24 2435.05    0 618745    0 5000068
  7049.29 1134776 209080 439767    0  0  0 1607.28 1420.54 870.64    0 1293.19 1151.69 2018.96 1190.4 2277.72 3625.46 1622.41 2662.41    0 618977    0 5000069
  7059.19 1136160 212042 445257    0  0  0 1353.69 1438.29 819.49    0 1348.43 1089.84 1924.54 1184.21 2046.23 1752.22 1606.74 2390.2    0 619227    0 5000068
  7069.15 1137555 214558 450759    0  0  0 1476.06 1398.34 823.001    0 1339.61 1089.32 1953.18 1170.48 2162.6 2076.27 1587.07 2522.37    0 619553    0 5000069
  7079.03 1138910 217405 456166    0  0  0 1309.62 1353.28 842.648    0 1227.3 1066.84 1986.97 1189.55 1831.02 2493.75 1528.38 2220.65    0 619897    0 5000069
  7089 1140240 220375 461406    0  0  0 1381.58 1437.2 819.748    0 1313.62 1024.55 1949.56 1138.42 2044.87 3972.58 1513.91 2400.89    0 620107    0 5000068
  7099.05 1141605 222929 464084    0  0  0 1214.18 1351.11 732.305    0 1231.09 1040.13 1956.77 1163.65 1878.5 2836.81 1552.17 2197.99    0 620292    0 5000069
  7109.03 1142667 225541 447712    0  0  0 1294.15 1397.07 813.579    0 1304.07 1133.08 2014.66 1196.51 1929.6 2400.45 1637.37 2308.46    0 620016    0 5000069
  7109.29 1142657 225401 442528    0  0  0 1270.38 1354.03 766.473    0 1218 1056.53 1908.55 1201.65 1745.79 2560.27 1575.25 2093.21    0 619870    0 5000069
  7109.59 1142612 225521 436736    0  0  0 1266.22 1424.49 808.01    0 1214.72 1051.43 1936.38 1242.24 1832.12 2117.65 1588.33 2193.79    0 619709    0 5000068
  7109.89 1142550 225669 428261    0  0  0 1212.48 1419.29 766.769    0 1295.64 1115.98 1998.05 1216.76 1816.64 4253.32 1525.15 2182.43    0 619447    0 5000069
  7110.16 1142436 225960 418863    0  0  0 1257.58 1372.63 730.188    0 1316.8 1186.82 1932.87 1221.22 1930.47 2975 1601.15 2228.02    0 619118    0 5000070
  7110.48 1142311 225593 406373    0  0  0 1310.6 1458.12 776.345    0 1247.9 1069.82 1982.51 1210.4 1976.83 4069.19 1618.98 2261.61    0 618702    0 5000068
  7110.76 1142075 225047 393811    0  0  0 1219.07 1416.99 795.061    0 1289.79 1119.79 1915.14 1226.27 1852.52 3860.96 1605.16 2133.78    0 618174    0 5000069
  7111.04 1141920 224741 379629    0  0  0 1316.66 1415.48 762.408    0 1327.59 1118.14 2000.76 1234.51 2031.99 3414.5 1677.7 2223.37    0 617600    0 5000069
  7111.33 1141746 224706 367365    0  0  0 1149.71 1546.16 777.45    0 1264.57 1153.33 2046.41 1301.6 1826.58 3501.3 1667.92 2052.11    0 616988    0 5000069
  7111.63 1141505 224577 355912    0  0  0 1430.93 1529.6 858.807    0 1377.41 1134.48 2149.14 1222.97 2007.57 3207.51 1782.76 2371.79    0 616307    0 5000070
  7111.9 1141281 224405 345941    0  0  0 1314.27 1552.06 799.54    0 1446.88 1186.25 2078.18 1362.69 1890.3 3131.82 1749.36 2267.88    0 615473    0 5000068
  7112.2 1141050 224362 338168    0  0  0 1368.3 1572.5 772.815    0 1463.26 1237.86 2089.74 1372.7 2060.06 2765.46 1781.9 2166.64    0 614778    0 5000068
  7112.5 1140843 224179 330835    0  0  0 1334.22 1628.36 805.009    0 1475.43 1297.34 2022.58 1387.22 2144.91 3297.07 1855.55 2199.37    0 614143    0 5000069
  7112.77 1140606 224104 324861    0  0  0 1362.39 1581.14 888.624    0 1511.72 1334.08 2154.32 1598.65 2108.83 2385.47 1732.23 2182.39    0 613446    0 5000068
  7113.09 1140402 224039 319249    0  0  0 1534.89 1586.29 932.219    0 1532.21 1302.03 2134.23 1525.22 2234.07 3297.88 1790.77 2303.44    0 612819    0 5000068
  7113.38 1140236 224017 314514    0  0  0 1408.45 1743.07 872.068    0 1522.9 1366.04 2141.55 1545.21 2161.65 3356.26 1935.58 2123.69    0 612304    0 5000069
  7113.66 1140121 223967 310155    0  0  0 1434.52 1704.07 888.891    0 1624.11 1377.51 2234.01 1520.92 2280.23 5014.27 1942 2257.32    0 611865    0 5000069
  7113.97 1140023 223903 306392    0  0  0 1356.29 1694.92 837.73    0 1595.07 1433.66 2218.3 1536.22 2212.61 3257.39 1961.04 2244.77    0 611517    0 5000069
  7114.26 1139931 223893 303297    0  0  0 1463.96 1715.09 906.482    0 1604.71 1350.99 2209.18 1532.28 2270.91 2880.53 2010.48 2288.24    0 611228    0 5000069
  7114.55 1139798 224134 301515    0  0  0 1443.73 1743.76 966.903    0 1594.97 1377.99 2146.97 1589.93 2186.61 3576.79 1996.04 2260.71    0 610928    0 5000069
  7114.85 1139784 224081 299469    0  0  0 1584.91 1774.41 914.646    0 1684.8 1437.18 2197.25 1643.98 2271.64 3399.63 1963.49 2260.7    0 610755    0 5000068
  7115.14 1139761 223994 297512    0  0  0 1415.55 1806.93 906.624    0 1645.76 1479.1 2262.84 1583.53 2309.25 3415.08 2021.61 2327.36    0 610582    0 5000069
  7115.41 1139742 223900 295881    0  0  0 1391.68 1832.25 945.304    0 1546.01 1434.09 2281.5 1741.08 2196.87 3116.21 1996.54 2153.46    0 610400    0 5000069
  7115.74 1139714 223849 294088    0  0  0 1525.15 1840.67 897.642    0 1607.49 1528.37 2246.14 1563.39 2299.58 2033.42 1978.99 2301.97    0 610208    0 5000069
  7116.01 1139682 223819 292005    0  0  0 1447.13 1795.32 910.204    0 1561.13 1484.83 2175.49 1558.44 2240.42 1563.25 2003.38 2214.47    0 610012    0 5000068
  7116.31 1139610 223814 289166    0  0  0 1540.09 1755.26 968.996    0 1573.74 1486.11 2230.16 1613.69 2283.44 1250.71 1992.53 2295.95    0 609727    0 5000069
  7116.62 1139543 223738 285433    0  0  0 1403.22 1795.56 891.544    0 1632.34 1447.4 2214.91 1666.95 2201.58 2661.85 2084.52 2177.38    0 609434    0 5000068
  7116.91 1139492 223639 280757    0  0  0 1509.3 1799.42 987.999    0 1613.99 1406.99 2246.72 1648.81 2364.38 2628.62 2078.17 2225.55    0 609138    0 5000069
  7117.19 1139413 223607 275488    0  0  0 1385.58 1824.45 913.979    0 1605.57 1426.51 2282.48 1665.17 2153.36 3948.65 2031.31 2234.39    0 608835    0 5000069
  7117.51 1139316 223586 269352    0  0  0 1511.93 1834.51 940.236    0 1551.39 1501.19 2137.02 1644.69 2268.72 5029.54 2032 2207.35    0 608486    0 5000068
  7117.77 1139262 223431 262861    0  0  0 1363.75 1830.99 946.62    0 1564.61 1470 2273.61 1654.35 2245.06 4527.44 2017.62 2185.98    0 608158    0 5000069
  7118.07 1139197 223308 255745    0  0  0 1456.25 1791.91 984.097    0 1626.57 1458.25 2170.15 1722.74 2210.87 2161.81 1988.57 2191.75    0 607812    0 5000068
  7118.37 1139080 223241 249120    0  0  0 1418.48 1803.17 940.259    0 1633.58 1521.04 2281.43 1652.9 2295.16 2069.6 2041.17 2233.4    0 607473    0 5000069
  7118.65 1139026 223206 242052    0  0  0 1475.67 1894.19 917.718    0 1667.91 1434.58 2281.79 1713.3 2227.14  0.00000 2107.17 2188.44    0 607133    0 5000069
  7118.94 1138934 223085 235194    0  0  0 1604.94 1880.76 995.266    0 1660.91 1463.99 2282.93 1648.39 2330.45 380.044 2066.76 2261.78    0 606807    0 5000068
  7119.26 1138868 223017 227993    0  0  0 1489.32 1862.21 970.836    0 1697.25 1465.11 2205.85 1775.65 2252.72 338.786 2101.55 2100.68    0 606477    0 5000069
  7119.52 1138796 222878 221349    0  0  0 1488.7 1888.56 1010.81    0 1705.12 1565.15 2302.87 1722.14 2263.45 1009.87 2036.26 2279.86    0 606154    0 5000068
  7119.84 1138707 222753 214457    0  0  0 1567.27 1881.77 970.173    0 1696.28 1606.77 2343.17 1707.09 2440.39 323.887 2111.31 2290.15    0 605797    0 5000068
  7120.16 1138605 222634 207898    0  0  0 1487.75 1892.27 996.893    0 1742.27 1529.41 2317.95 1850.1 2424.93 1222.74 2229.52 2267.88    0 605427    0 5000068
  7120.42 1138515 222504 202096    0  0  0 1464.22 1949.7 1041.5    0 1680.09 1567.6 2242.05 1794.24 2420.02 1238.21 2107.13 2199.39    0 605079    0 5000069
  7120.74 1138415 222383 196469    0  0  0 1535.23 1976.5 990.018    0 1764.39 1584.31 2380.97 1812.58 2365.56 1752.42 2129.66 2148.42    0 604701    0 5000069
  7121.03 1138307 222288 191789    0  0  0 1487.04 1987.38 1040.85    0 1735.81 1588.66 2372.96 1810.85 2350.25 1753.04 2215.18 2248.93    0 604360    0 5000069
  7121.31 1138203 222174 187213    0  0  0 1480.83 1975.24 1011.64    0 1795.26 1595.25 2424.85 1854 2316.2 1903.81 2288.87 2244.29    0 603980    0 5000068
  7121.61 1138079 222092 183365    0  0  0 1625.6 2087.26 1048    0 1823.33 1666.13 2455.78 1895.57 2526.05 2118.34 2270.67 2182.93    0 603602    0 5000069
  7121.92 1137994 221849 179453    0  0  0 1493.29 1974.84 1075.13    0 1897.47 1668.47 2404.99 1883.05 2425 2447.21 2297.38 2185.87    0 603208    0 5000069
  7122.19 1137864 221750 176271    0  0  0 1615.22 2097.08 1064.83    0 1900.48 1764.25 2407.68 1973.79 2457.48 1458.26 2350.79 2256.2    0 602803    0 5000068
  7122.51 1137741 221627 173180    0  0  0 1506.77 2124.27 1054.01    0 1894.05 1777.88 2514.15 1976.42 2478.26 1831.61 2404.03 2172.33    0 602352    0 5000068
  7122.8 1137598 221496 170441    0  0  0 1688.99 2161.35 1145.58    0 1919 1880.94 2562.14 2050.35 2601.32 1748.55 2387.52 2237.76    0 601826    0 5000069
  7123.09 1137458 221296 167681    0  0  0 1759.54 2237.97 1193.12    0 1994.89 1898.83 2537.1 2071.47 2670.87 2545.46 2456.14 2272.7    0 601311    0 5000068
  7123.41 1137302 221211 165366    0  0  0 1608.88 2199.02 1125.72    0 1937.36 2029.56 2607.27 2130.58 2759.1 2074.94 2589.75 2207.9    0 600924    0 5000068
  7123.71 1137206 220843 162738    0  0  0 1782.37 2326.64 1258.92    0 2057.8 1986.1 2658.57 2174.9 2890.62 1869.75 2679.01 2286.81    0 600407    0 5000068
  7123.99 1137033 220648 160567    0  0  0 1684.16 2408.82 1218.52    0 2085.79 2045.07 2610.49 2296.28 2739.54 2870.71 2728.99 2283.23    0 599863    0 5000068
  7124.33 1136856 220446 158477    0  0  0 1910.64 2416.35 1252.91    0 2182.12 2131.2 2832.42 2335.1 3041.93 2092.72 2770.86 2390.13    0 599265    0 5000068
  7124.6 1136676 220270 156586    0  0  0 1953.3 2502.68 1257.8    0 2209.24 2176.69 2761.74 2388.82 2988.43 2379.87 2856.07 2393.54    0 598675    0 5000069
  7124.88 1136512 220041 154670    0  0  0 1940.93 2681.72 1370.45    0 2320.06 2227.32 2941.02 2478.21 3095.26 1930.85 2928.6 2365.07    0 598077    0 5000068
  7125.21 1136318 219867 152716    0  0  0 1942.55 2631.59 1443.24    0 2360.29 2390.48 2962.52 2650.47 3230.2 2254.82 3090.19 2417.58    0 597400    0 5000069
  7125.48 1136121 219678 150923    0  0  0 2001.49 2837.49 1420.14    0 2403.29 2408.37 3058.4 2622.69 3179.69 2485.95 3239.23 2278.66    0 596744    0 5000069
  7125.78 1135906 219455 148854    0  0  0 2134.09 2915.41 1481.8    0 2492.46 2585.83 3110.91 2758.17 3434.53 2869.39 3293.05 2497.39    0 596059    0 5000068
  7126.1 1135729 219263 146956    0  0  0 2089.33 2915.87 1575.97    0 2645.94 2601.42 3115.7 2833.83 3403.44 2147.47 3430.89 2400.34    0 595425    0 5000069
  7126.39 1135518 219102 144817    0  0  0 2186.28 3036.16 1596.65    0 2686.68 2831.61 3289.79 2960.66 3692.68 2946.98 3558.07 2544.71    0 594726    0 5000069
  7126.69 1135354 218950 142769    0  0  0 2108.98 3098.2 1630.1    0 2758.24 2905.75 3462.3 2982.53 3630.62 3927.5 3694.05 2404.06    0 594069    0 5000068
  7127.02 1135197 218868 140508    0  0  0 2340.52 3266.18 1701.39    0 2892.91 2916.31 3509.55 3244.19 3804.87 4436.86 3861.21 2588.67    0 593469    0 5000069
  7127.29 1135083 218677 138232    0  0  0 2280.98 3328.32 1767.59    0 2900.89 3013.33 3570.57 3230.94 3913.39 2178.78 3845.85 2441.59    0 592955    0 5000069
  7127.61 1134996 218609 135863    0  0  0 2470.99 3493.43 1757.63    0 3027.03 3212.3 3659.28 3329.02 3874.21 3362.97 4090.37 2491.77    0 592550    0 5000069
  7127.91 1134944 218576 133660    0  0  0 2417.46 3593.68 1849.15    0 3144.89 3296.53 3811.97 3594.97 4136.99 4082.62 4196.45 2580.01    0 592252    0 5000069
  7128.19 1134909 218570 131345    0  0  0 2449.43 3623.18 1937.6    0 3211.72 3462.38 3804.19 3576.62 4311.45 4202.47 4546.9 2471.62    0 592060    0 5000068
  7128.5 1134903 218586 129172    0  0  0 2752.87 3872.99 1959.47    0 3423.89 3553.83 3922.67 3831.16 4385.64 3340.4 4673.5 2632.91    0 591947    0 5000069
  7128.81 1134887 218621 127105    0  0  0 2627.89 3944.09 2064.01    0 3505.43 3689.87 4060.26 3858.13 4529.02 3355.21 4655.92 2611.61    0 591867    0 5000068
  7129.08 1134823 218858 125543    0  0  0 2803.22 4063.72 2128.83    0 3509.21 3795.13 4121.82 4041.49 4699.83 3665.28 4771.72 2735.5    0 591741    0 5000069
  7129.4 1134820 218775 123859    0  0  0 2833.56 4037.54 2049    0 3622.16 3956.15 4260.88 4119.85 4628.39 3770.22 4965.78 2710.89    0 591612    0 5000068
  7129.7 1134777 218703 122491    0  0  0 2899.92 4206.32 2147.57    0 3762.52 3938.61 4423.67 4235.53 4981.76 3113.07 5102.96 2750.61    0 591397    0 5000069
  7129.99 1134694 218523 121443    0  0  0 2930.63 4365.04 2228.33    0 3765.24 4078.96 4371.83 4334.32 5010.94 2520.31 5172.07 2722.32    0 591079    0 5000068
  7130.31 1134587 218430 120969    0  0  0 2984.14 4384.75 2287.8    0 3864.98 4192.65 4621.55 4449.09 5194.78 2359.6 5232.05 2745.36    0 590700    0 5000068
  7130.6 1134438 218370 120904    0  0  0 2959.58 4550.89 2353.72    0 3893.11 4275.91 4540.53 4471.69 5102.61 2942.15 5336.59 2805.15    0 590251    0 5000069
  7130.9 1134253 218321 121420    0  0  0 3050.48 4445.33 2292.44    0 3989.8 4174.26 4673.64 4466.53 5186.47 5279.37 5423.88 2743.32    0 589670    0 5000069
  7131.22 1134071 218188 122252    0  0  0 3137.16 4589.8 2412.34    0 4018.7 4420.31 4776.46 4718.23 5305.01 4885.28 5510.1 2966.22    0 589154    0 5000069
  7131.51 1133929 218122 123544    0  0  0 3026.55 4597.1 2402.4    0 4086.5 4576.59 4792.88 4693.09 5513.85 4669.8 5659.55 2754.17    0 588614    0 5000069
  7131.8 1133760 218075 124952    0  0  0 3281.43 4764.52 2494.25    0 4158.03 4534.11 4799.34 4728.84 5392.27 5333.46 5728.21 2825.04    0 588096    0 5000069
  7132.13 1133626 218021 126764    0  0  0 3163.75 4852.61 2505.83    0 4185.77 4498.11 4864.65 4713.87 5392.62 4032.25 5773.2 2775.81    0 587611    0 5000069
  7132.4 1133524 218036 128557    0  0  0 3148.82 4722.12 2572.7    0 4154.05 4635.7 4923.24 4769.9 5548.56 5372.36 5826.94 2916.99    0 587226    0 5000069
  7132.71 1133411 218064 130511    0  0  0 3062.45 4722.33 2488.37    0 4051.67 4608 4866.64 4741.62 5392.65 4200.18 5702.69 2912.31    0 586853    0 5000069
  7133.02 1133283 218341 132628    0  0  0 3167.02 4705.44 2443.08    0 4235.28 4592.61 4878.7 4688.57 5462.25 4086.87 5795.92 2816.25    0 586540    0 5000069
  7133.31 1133239 218411 134500    0  0  0 3264.56 4847.07 2510.76    0 4288.6 4585.02 4836.54 4829.15 5507.22 4359.56 5637.42 2872.75    0 586295    0 5000068
  7133.62 1133204 218523 136219    0  0  0 3158.35 4735.69 2523.81    0 4297.85 4700.83 4761.26 4771.18 5330.09 5802.45 5637.78 2889.42    0 586138    0 5000068
  7133.93 1133232 218550 137738    0  0  0 3186.45 4756.67 2416.81    0 4035.24 4472.04 4927.62 4751.92 5579.58 5353.41 5744.62 2857.62    0 586017    0 5000068
  7134.22 1133234 218699 139221    0  0  0 3098.29 4820.29 2530.06    0 4297.05 4422.46 4994.2 4759.32 5447.98 3801.12 5678.98 2865.27    0 585956    0 5000069
  7134.52 1133244 218833 140452    0  0  0 3212.37 4648 2518.04    0 4235.22 4439.51 4820.84 4769.08 5412.54 2794.43 5752.57 2840.85    0 585892    0 5000069
  7134.84 1133273 219034 141598    0  0  0 3053.96 4790.18 2453.38    0 4208.82 4447.8 4756.14 4736.11 5309.42 4595.6 5565.64 2710.68    0 585873    0 5000069
  7135.11 1133368 218910 142164    0  0  0 3164.26 4696.62 2465.51    0 4164.51 4571.64 4901.4 4689.61 5360.08 4565.79 5673.47 2918.71    0 585899    0 5000069
  7135.43 1133362 219229 143054    0  0  0 3166.25 4670.12 2433.45    0 4137.91 4467.44 4825.65 4767.91 5385.48 5024.72 5714 2769.29    0 585878    0 5000069
  7135.72 1133420 219327 143495    0  0  0 3074.18 4774.91 2421.2    0 4079.34 4440.15 4825.87 4784.5 5367.47 4188.69 5538.45 2858.91    0 585899    0 5000068
  7135.99 1133488 219405 143771    0  0  0 3147.68 4603.2 2536.99    0 4196.82 4256.66 4768.9 4626.74 5365.77 4473.56 5549.06 2831.99    0 585928    0 5000069
  7136.33 1133578 219520 143906    0  0  0 3140.16 4635.37 2424.17    0 4108.08 4507.96 4848.78 4651.18 5368.71 4704.94 5453.45 2835.62    0 585963    0 5000068
  7136.62 1133669 219500 143681    0  0  0 3102.23 4670.35 2395.06    0 4190.52 4393.1 4699.37 4620.46 5338.99 1399.72 5593.31 2833.37    0 586040    0 5000069
  7136.92 1133721 219589 143471    0  0  0 3057.26 4574.53 2317.56    0 4128.52 4480.96 4762.35 4652.99 5245.19 2906.8 5464.64 2800.25    0 586082    0 5000069
  7137.24 1133774 219746 143214    0  0  0 3117.87 4709.82 2462.93    0 4059.45 4480.44 4753.62 4579.18 5265.27 2899.71 5496.98 2876.32    0 586138    0 5000069
  7137.54 1133857 219881 142721    0  0  0 3082.42 4660.81 2364.21    0 4115.53 4275.76 4759.61 4643.34 5195.85 3102.12 5564.22 2796.66    0 586207    0 5000068
  7137.83 1133915 220012 142255    0  0  0 3045 4722.57 2301.05    0 4034.1 4293.06 4688.87 4602.28 5251.35 3802.92 5617.02 2771.65    0 586255    0 5000068
  7138.14 1134040 219892 141419    0  0  0 3034.75 4699.6 2390.86    0 4207.87 4381.42 4879.82 4648.02 5175.78 3204.8 5633.41 2809.52    0 586341    0 5000069
  7138.44 1134103 220066 140801    0  0  0 3048.01 4482.13 2436.82    0 4096.74 4419.07 4666.95 4646.35 5172.23 3949.27 5575.63 2783.38    0 586420    0 5000069
  7138.72 1134165 220211 140260    0  0  0 3117 4673.03 2300.6    0 3959.04 4371.65 4773.66 4524.67 5285.47 4432.56 5508.75 2796.71    0 586434    0 5000069
  7139.06 1134199 220337 139611    0  0  0 3027.19 4561.03 2361.11    0 4018.64 4358.61 4712.63 4464 5121.15 5360.52 5361.04 2781.96    0 586514    0 5000068
  7139.33 1134264 220456 139138    0  0  0 3090.89 4592.24 2279.76    0 4008.3 4448.67 4706.96 4621.66 5111.59 4124.76 5386.91 2904.54    0 586561    0 5000069
  7139.65 1134304 220698 138703    0  0  0 2881.9 4495.15 2339.33    0 3999.48 4236.66 4626.01 4530.94 5073.94 5742.16 5364.56 2633.31    0 586617    0 5000069
  7139.96 1134377 220897 138404    0  0  0 3003.6 4412.41 2325.33    0 4152.4 4307.53 4518.06 4575.99 5046.89 4444.63 5332.03 2792.46    0 586680    0 5000068
  7140.24 1134443 221003 138096    0  0  0 2909.39 4447.1 2405.78    0 4001.05 4328.92 4733.52 4424.27 5047.63 3989.82 5270.14 2741.87    0 586700    0 5000069
  7140.56 1134512 221096 137884    0  0  0 3018.66 4349.23 2246.78    0 3882.83 4139.62 4465.52 4336.96 4940.81 3904.69 5280.05 2813.63    0 586755    0 5000068
  7140.87 1134562 221272 137835    0  0  0 2871.61 4463.54 2259.66    0 3843.82 4060.1 4574.52 4335.26 4894.74 4224.61 5191.83 2721.6    0 586827    0 5000069
  7141.16 1134644 221467 137936    0  0  0 2921.06 4363.67 2297.01    0 3816.63 4126.7 4569.4 4346.88 4976.61 5345.74 5207.67 2709.81    0 586909    0 5000069
  7141.48 1134692 221626 138099    0  0  0 2886.56 4282.39 2375.59    0 3895.8 4137.19 4473.49 4252.44 4882.45 4409.03 5200.2 2760.21    0 586981    0 5000069
  7141.77 1134748 221761 138310    0  0  0 2813.26 4231.12 2262.8    0 3856.81 4039.43 4388.37 4313.13 4756.35 5485.34 5205.19 2697.26    0 587015    0 5000069
  7142.06 1134871 221848 138508    0  0  0 2692.37 4280.9 2181.52    0 3701.06 3932.61 4457.15 4160.84 4876.05 3647.14 5124.49 2692.56    0 587131    0 5000069
  7142.37 1134917 222032 138864    0  0  0 2749.94 4125.13 2171.39    0 3758.58 3898.72 4412.65 4168.76 4809.14 4228.85 5098.48 2566.38    0 587189    0 5000069
  7142.68 1135005 222201 139200    0  0  0 2786.75 4174.29 2186.3    0 3754.68 3858.09 4296.63 4188.35 4786.62 4533.45 4919.37 2675.32    0 587297    0 5000069
  7142.95 1135060 222353 139520    0  0  0 2735.47 4249.88 2146.24    0 3718.4 3996.95 4371.87 4282.24 4886.2 3598.78 4979.34 2572.76    0 587378    0 5000069
  7143.27 1135129 222563 139783    0  0  0 2783.93 4072.78 2087.3    0 3578.24 3859.55 4333.7 4162.62 4685.12 3888.48 4998.64 2625.84    0 587476    0 5000068
  7143.58 1135231 222739 140075    0  0  0 2652.12 4014.21 2220.89    0 3623.69 3774.24 4368.63 4156.44 4603.77 5054.89 5030.23 2616.87    0 587590    0 5000069
  7143.87 1135251 223113 140442    0  0  0 2680.99 4083.64 2143.18    0 3701.19 4007.55 4122.73 3964.69 4556.62 5210.53 4977.19 2620.37    0 587658    0 5000069
  7144.21 1135355 223302 140503    0  0  0 2744.4 4038.46 2149.34    0 3749.75 3822.78 4217.39 4041.17 4760.87 5751.79 4839.76 2572.68    0 587782    0 5000069
  7144.49 1135440 223475 140473    0  0  0 2701.95 4068.43 2028.44    0 3529.06 3767.36 4181.26 3994.68 4604.27 2695.27 4842.09 2506.65    0 587915    0 5000069
  7144.79 1135541 223671 140346    0  0  0 2731.88 4083.37 2135.25    0 3547.92 3850.59 4199.91 3981.31 4561.36 3079.17 4682.92 2635.06    0 588057    0 5000068
  7145.12 1135630 223810 140085    0  0  0 2703.27 4026.09 2072.85    0 3488.57 3670.44 4202.83 4057.24 4679.73 4850.03 4848.75 2491.16    0 588208    0 5000068
  7145.39 1135737 223995 139768    0  0  0 2765.47 3915.46 2060.96    0 3494.45 3775.8 4238.29 4007.77 4628.01 6016.33 4801.4 2598.76    0 588340    0 5000069
  7145.68 1135792 224298 139445    0  0  0 2649.08 3876.15 2027.48    0 3437.43 3779.39 4206.17 3987.49 4377.56 5430.9 4700.15 2576.07    0 588435    0 5000069
  7146.01 1135881 224485 138911    0  0  0 2684.26 3836.6 2061.82    0 3491.22 3656.6 4067.21 3866.51 4349 4197.06 4733.83 2631.82    0 588601    0 5000068
  7146.28 1136006 224637 138224    0  0  0 2630.26 3949.72 2056.91    0 3502.6 3779.59 4052.45 3910.25 4601.27 3593.82 4638.77 2622.99    0 588766    0 5000069
  7146.6 1136082 224831 137666    0  0  0 2531.56 3955.7 1988.49    0 3516.21 3687.25 4176.98 3894.58 4529.48 4076.58 4653.96 2470.44    0 588896    0 5000068
  7146.91 1136167 224950 136807    0  0  0 2660.94 3889.24 2048.63    0 3441.83 3666.62 3988.88 3960.12 4493.22 3969.27 4747.91 2599.88    0 589044    0 5000069
  7147.18 1136267 225144 136118    0  0  0 2632.15 3875.34 2020.4    0 3473.03 3748.39 3978.23 3793.56 4522.57 5286.75 4665.74 2527.87    0 589198    0 5000068
  7147.51 1136345 225306 135374    0  0  0 2597.21 3822.98 2032.61    0 3445.28 3527.92 4128.75 3851.17 4362.69 4932.3 4595.61 2686.46    0 589325    0 5000068
  7147.82 1136426 225524 134736    0  0  0 2584.01 3892.7 1993.38    0 3358.66 3562.61 4059.84 3863.14 4448.62 4915.18 4529.94 2480.72    0 589467    0 5000069
  7148.09 1136530 225618 133979    0  0  0 2594.25 3876.74 2049.54    0 3294.66 3696.03 4064.76 3857.47 4358.39 5393.35 4582.37 2549.63    0 589591    0 5000069
  7148.42 1136598 225717 133322    0  0  0 2552.65 3743.3 2019.63    0 3344.89 3620.67 3899.24 3843.24 4298.73 5956.41 4603.42 2627.58    0 589709    0 5000068
  7148.71 1136679 225915 132868    0  0  0 2556.42 3775.52 1953.12    0 3250.52 3544.68 4130.95 3787.52 4342.92 5839.6 4505.84 2534.79    0 589804    0 5000069
  7149 1136745 226042 132337    0  0  0 2568.27 3884.33 1967.3    0 3396.5 3538.04 4074 3831.13 4364.37 5283.19 4487.42 2519.62    0 589918    0 5000068
  7149.31 1136803 226242 132046    0  0  0 2531.33 3830.79 2029.54    0 3365.91 3572.13 3967.49 3717.37 4265.79 5741.03 4559 2465.32    0 589938    0 5000069
  7149.59 1136858 226347 131655    0  0  0 2501.05 3799.33 1925.92    0 3474.78 3543.85 4019 3728.77 4232.06 6031.33 4517.47 2526.2    0 590081    0 5000069
  7149.88 1136934 226495 131373    0  0  0 2477.82 3818.64 1901.15    0 3402.75 3507.65 3987.2 3793.7 4194.1 5464.25 4562.94 2469.58    0 590149    0 5000069
  7150.2 1137002 226607 131113    0  0  0 2666.87 3760.77 1921.99    0 3243.53 3431.29 3917.81 3640.18 4261.64 4040.57 4458.22 2530.29    0 590187    0 5000069
  7150.49 1137022 226801 130946    0  0  0 2410.83 3753.26 2001.52    0 3292.02 3459.38 4018.25 3846.33 4195.01 4048.65 4349.59 2482.31    0 590220    0 5000068
  7150.79 1137088 226923 130723    0  0  0 2551.72 3697.65 1899.92    0 3335.22 3546.12 4000.47 3730.32 4248.03 6286.54 4465.71 2514.7    0 590236    0 5000069
  7151.11 1137152 226921 130423    0  0  0 2479.35 3753.71 1847.41    0 3381.14 3421.67 3951.45 3640.83 4121.19 5508.68 4234.12 2488.17    0 590278    0 5000069
  7151.39 1137187 227027 130291    0  0  0 2460.21 3805.58 1913.98    0 3317.18 3486.77 3951.33 3729.32 4230.14 5041.76 4365.55 2526.57    0 590252    0 5000069
  7151.69 1137234 227168 130098    0  0  0 2415.05 3768.49 1942.08    0 3260.41 3471.47 3892.39 3794.98 4166.48 5671.98 4507.26 2519.85    0 590256    0 5000069
  7152.01 1137251 227262 129998    0  0  0 2448.74 3699.74 1886.9    0 3147.46 3489.74 3929.47 3649.4 4168.1 4583.97 4425.76 2519.96    0 590241    0 5000069
  7152.28 1137298 227337 129921    0  0  0 2406.67 3701.62 1903.13    0 3362.42 3412.13 3811.93 3696.56 4153.87 5966.12 4382.11 2601.29    0 590233    0 5000069
  7152.59 1137324 227453 129838    0  0  0 2428.27 3801.36 1852.64    0 3268.07 3458.13 3790.52 3674.3 4088.66 5286.42 4402.18 2448.88    0 590128    0 5000069
  7152.9 1137341 227536 129918    0  0  0 2551.96 3761.9 1870.66    0 3290.75 3362.36 3826.7 3658.54 4206.99 6272.73 4230.95 2585.25    0 590097    0 5000069
  7153.19 1137425 227428 129662    0  0  0 2439.16 3625.92 1946.2    0 3210.17 3375.45 3783.37 3708.22 4175.38 4233.04 4453.87 2523.56    0 590122    0 5000069
  7153.48 1137471 227539 129774    0  0  0 2371.14 3750.07 1884.64    0 3210.29 3331.34 3900.54 3710.76 4110.52 5384.24 4353.9 2441.25    0 590105    0 5000068
  7153.8 1137490 227665 129923    0  0  0 2348.53 3590.56 1968.17    0 3300.76 3402.49 3884.82 3666.99 4023.51 4744.58 4292.59 2484.5    0 590054    0 5000069
  7156.1 1137805 228317 131490    0  0  0 2337.22 3550.91 1819.31    0 3174.92 3366.98 3707.28 3630.47 4005.6 4827.88 4228.94 2443.3    0 590092    0 5000069
  7158.51 1138016 228978 132439    0  0  0 2392.59 3454.28 1747.99    0 3156.67 3180.39 3653.5 3521.76 3921.52 4946.8 4140.12 2392.16    0 589922    0 5000069
  7160.99 1138038 229704 133268    0  0  0 2373.93 3392 1778.11    0 3016.82 3238.08 3532.93 3456.91 3865.47 5022.5 4096.01 2449.33    0 589296    0 5000068
  7163.56 1138069 230360 135003    0  0  0 2246.82 3397.6 1807.23    0 3104.56 3155.52 3679.19 3434.69 3906.37 5394.42 4189.47 2413.99    0 588468    0 5000069
  7166.22 1138032 230480 136332    0  0  0 2353.82 3605.85 1764.9    0 3095.15 3269.95 3784.1 3464.88 3931.44 4337.52 4162.78 2346.74    0 587439    0 5000068
  7168.95 1138135 230752 137501    0  0  0 2288.61 3591.09 1915.73    0 3250.39 3321.67 3801.24 3623.09 4058.47 5003.27 4293.4 2431.99    0 586589    0 5000068
  7171.79 1138408 231291 140472    0  0  0 2369.87 3683.65 1943.98    0 3282.25 3442.16 3874.16 3704.64 4128.88 5259.45 4356.4 2239.08    0 586256    0 5000069
  7174.68 1138805 232237 145762    0  0  0 2530.42 3789.72 1946.66    0 3309 3565.45 4055.09 3788.49 4229.15 4668.54 4594.13 2435.24    0 586300    0 5000069
  7177.62 1139157 233554 151732    0  0  0 2530.9 3924.82 1984.8    0 3525.66 3747.19 4090.42 3909.22 4293.92 5965.5 4661.44 2321.61    0 586300    0 5000068
  7180.71 1139633 234244 153724    0  0  0 2477.99 3897.88 1976.66    0 3511.79 3704.04 4049 4032.99 4462.82 6241.64 4748.73 2559.06    0 586443    0 5000069
  7183.84 1140203 235043 152098    0  0  0 2440.1 3975.84 2043.13    0 3613.76 3660.17 4155.94 4034.32 4429.1 5732.25 4710.79 2374.15    0 586676    0 5000068
  7187.13 1140801 235838 147700    0  0  0 2605.58 4101.5 1998.73    0 3612.52 3672.49 4309.03 4127.68 4453.55 5488 4802.91 2372.91    0 587016    0 5000069
  7190.45 1141357 237273 142731    0  0  0 2577.71 4041.06 2104.55    0 3537.03 3741.23 4313.07 4138.54 4409.81 6185.34 4794.81 2457.24    0 587408    0 5000069
  7193.84 1141943 238599 139676    0  0  0 2650.96 3984.01 2073.96    0 3544.65 3841.8 4241.4 4111.49 4431.9 5521.28 4713.06 2298.05    0 587839    0 5000069
  7197.26 1142542 239969 143264    0  0  0 2569.51 4094.65 1964.2    0 3604.09 3851.26 4422.17 4090.78 4506.95 6031.05 4874.8 2482.27    0 588334    0 5000069
  7200.75 1143207 240896 150248    0  0  0 2518.78 4009 2056.81    0 3633.8 3848.76 4251.8 4067.86 4475.28 5701.78 4871.55 2412.06    0 588723    0 5000068
  7204.34 1143776 242161 158660    0  0  0 2604.55 4085.04 2103.95    0 3595.8 3796.46 4283.95 4065.33 4399.44 5969.1 4848.09 2405.57    0 588811    0 5000069
  7207.99 1144094 243266 161986    0  0  0 2507.62 3992.81 2115.91    0 3555.13 3864.96 4037.18 4062.67 4362.63 4394.59 4771.66 2296.28    0 588603    0 5000069
  7211.66 1144454 244245 151466    0  0  0 2537.46 4009.68 2044.57    0 3561.09 3746.37 4022.87 4012.67 4217.22 4497.04 4639.5 2355.21    0 588262    0 5000069
  7215.4 1144998 244865 134510    0  0  0 2446.2 4058.45 2112.58    0 3511.25 3621.98 4135.38 3949.04 4288.43 4811.3 4585.4 2298.49    0 588160    0 5000068
  7219.23 1145573 246040 125656    0  0  0 2443.92 3932.72 1946.62    0 3523.77 3671.7 4189.81 4065.29 4291.47 6403.18 4557.72 2345.86    0 588290    0 5000069
  7223.2 1146163 247873 129801    0  0  0 2319.54 3766.24 1989.66    0 3373.66 3625.44 4036.93 4015.1 4162.63 5018.97 4444.78 2229.86    0 588580    0 5000068
  7227.22 1146804 249133 142872    0  0  0 2404.05 3789 2061.05    0 3462.51 3725.62 4024.96 3973.5 4103.98 6525.41 4597.17 2315.02    0 588839    0 5000069
  7231.29 1147400 249962 157769    0  0  0 2401.36 4100.78 1896.3    0 3485.76 3686.22 4135.95 3856.59 4207.62 7082.67 4733.2 2145.01    0 588861    0 5000069
  7235.47 1147786 251030 168854    0  0  0 2455.18 3968.31 1966.27    0 3544.71 3665.84 4032.7 3925.05 4310.58 6071.52 4518.77 2216.32    0 588453    0 5000069
  7239.7 1148141 252470 171628    0  0  0 2487.02 4002.33 2033.1    0 3505.52 3707.01 4174.88 3868.65 4198.38 5894.62 4904.8 2255.39    0 588059    0 5000069
  7244.04 1148811 253522 167104    0  0  0 2473.9 4201.33 1995.88    0 3518.02 3607.95 4256.92 4024.07 4170.65 6056.2 4826.18 2267.27    0 588175    0 5000068
  7248.46 1149532 254738 163145    0  0  0 2471.25 4153.77 2013.64    0 3604.78 3850.56 4275.77 4145.21 4244.53 3745.92 4856.66 2384.54    0 588425    0 5000068
  7252.99 1150246 256342 165714    0  0  0 2462.76 4178.26 2152.97    0 3706.11 3819.21 4245.96 4133.19 4321.19 6112.64 4722.9 2189.65    0 588785    0 5000068
  7257.57 1150914 258284 168313    0  0  0 2484.92 4232.96 2103.34    0 3609.1 4018.46 4219.86 4088.88 4403.16 6209.27 4957.43 2180.8    0 589088    0 5000069
  7262.21 1151651 259999 166028    0  0  0 2474.05 4217.18 2140.22    0 3741.61 4064.08 4259.1 4185.15 4426.25 5409.17 5038.09 2114.26    0 589378    0 5000069
  7266.91 1152383 261217 163575    0  0  0 2578.99 4293.43 2241.6    0 3784.41 4098.87 4343.28 4384.34 4429.96 5910.48 4967.84 2250.45    0 589552    0 5000069
  7271.68 1152912 262804 158965    0  0  0 2463.1 4282.85 2127.29    0 3788.43 3949.51 4465.08 4422.81 4492.18 5428.27 4960.72 2271.65    0 589391    0 5000069
  7276.58 1153495 264415 155996    0  0  0 2493.61 4531.21 2168.78    0 3853.21 4005.69 4533.52 4460.99 4568.93 6531.67 4933.1 2300.58    0 589299    0 5000069
  7281.52 1154157 265904 153422    0  0  0 2547.95 4284.41 2147.44    0 3903.88 4082.44 4448.85 4343.36 4579.26 4684.08 5072.91 2227.58    0 589276    0 5000069
  7286.63 1154831 267500 150280    0  0  0 2488.14 4279.94 2225.53    0 3900.13 4108.52 4589.51 4303.43 4481.12 4166.54 5006.35 2323.5    0 589337    0 5000069
  7291.78 1155559 269607 154788    0  0  0 2449.31 4416.36 2220.86    0 3847.43 3940.73 4475.29 4295.04 4371.88 3561.26 4936.84 2141.03    0 589721    0 5000069
  7296.99 1156178 270984 166083    0  0  0 2503.65 4332.49 2138.62    0 3872.39 3951.69 4425.47 4276.47 4368.4 4099.83 5097.35 2128.65    0 589529    0 5000069
  7302.24 1157019 273016 175843    0  0  0 2490.52 4282.07 2168.5    0 3741.94 3949.97 4349.87 4346.18 4366.23 5399.5 5088.11 2140.65    0 589868    0 5000069
  7307.59 1157763 274639 180939    0  0  0 2430.97 4364.68 2159.06    0 3925.06 3903.65 4365.18 4354.43 4367.46 5558.73 5009.22 2163.89    0 589875    0 5000068
  7312.99 1158439 276397 181987    0  0  0 2534.02 4477.08 2222.3    0 3816.36 3953.49 4465.15 4280.6 4440.06 4846.8 4988.19 2050.43    0 589832    0 5000068
  7318.51 1159135 278058 182954    0  0  0 2466.43 4322.35 2165.39    0 3737.59 3937.63 4330.8 4364.08 4530.93 4347 5156.18 2159.31    0 589702    0 5000069
  7324.09 1159230 278982 183078    0  0  0 2650.06 4406.88 2156.14    0 3810.58 4075.51 4397.48 4291.5 4230.49 3793.86 5228.4 2020.86    0 588356    0 5000069
  7329.83 1157827 278666 183526    0  0  0 2431.34 4390.91 2184.61    0 3904.71 3968.6 4298.1 4355 4363.57 3887.5 5206.65 2011.43    0 582785    0 5000068
  7335.62 1159926 282212 188460    0  0  0 2442.39 4437.81 2133.76    0 3971.73 4010.67 4459.37 4275.91 4336.44 5552.75 5154.72 2107.15    0 585885    0 5000068
  7341.44 1162529 286674 190036    0  0  0 2485.45 4519.98 2166.55    0 4122.97 4124.32 4506.48 4461.8 4429.42 4957.03 5174.6 2029.47    0 590773    0 5000069
  7347.37 1163295 288592 184262    0  0  0 2484.17 4504.72 2253.75    0 3880.69 4152.95 4586.2 4556.08 4551.25 4197.83 5225.97 2080.26    0 590765    0 5000068
  7353.31 1164055 290597 178528    0  0  0 2451.76 4562.87 2146.17    0 3984.14 4293.33 4522.95 4488.48 4576.79 4028.09 5245.46 2111.79    0 590751    0 5000068
  7359.31 1164823 292729 174438    0  0  0 2515.95 4500.19 2188.58    0 3984.47 4243.33 4623.09 4550.08 4581.38 3680.19 5219.63 2052.12    0 590724    0 5000069
  7365.33 1165571 294926 173122    0  0  0 2490.36 4588.19 2255.46    0 4055.42 4310.46 4647.66 4504.37 4642.47 3676.71 5352.27 1987.1    0 590716    0 5000068
  7371.51 1166344 297041 177358    0  0  0 2481.24 4631.71 2212.88    0 4031.31 4311.38 4561.04 4660.98 4585.42 3174.16 5322.49 2035.5    0 590673    0 5000069
  7377.77 1167155 299459 189577    0  0  0 2722.75 4646.89 2287.83    0 4084.14 4242.35 4597.84 4580.64 4523.27 4081.5 5293.03 1993.62    0 590720    0 5000068
  7384.01 1168007 301670 202230    0  0  0 2650.38 4768.45 2256.57    0 4101.7 4170.38 4771.88 4611.31 4610.78 4650.04 5329.46 2092.54    0 590847    0 5000069
  7390.37 1168808 304011 204915    0  0  0 2660.15 4746.02 2336.69    0 4148.16 4287.32 4635.35 4560.16 4576.41 3218.18 5286.87 2011.46    0 590832    0 5000068
  7396.86 1169658 306544 203650    0  0  0 2639.5 4817.96 2302.72    0 4102.25 4314.49 4737.85 4801.32 4687.39 3316.87 5349.04 2057.29    0 590870    0 5000069
  7403.38 1170477 308897 204658    0  0  0 2468.99 4730.35 2323.18    0 4107.82 4155.33 4593.2 4836.27 4709.05 3502.38 5560.52 1948.52    0 590861    0 5000068
  7409.93 1170920 311156 205636    0  0  0 2488.59 4643.47 2314.43    0 4172.17 4237.43 4693.23 4664.82 4671.7 4046.27 5569.08 2039.25    0 590427    0 5000069
  7416.49 1172393 314058 206568    0  0  0 2678.55 4704.32 2304.74    0 4170.54 4239.19 4625.56 4818.34 4553.33 3376.83 5449.12 2026.41    0 591506    0 5000069
  7423.14 1173209 316726 209833    0  0  0 2566.96 4646.48 2320.4    0 4191.81 4423.87 4662.18 4747.06 4663.8 3452.6 5397.46 2104    0 591456    0 5000068
  7429.98 1174032 319374 212605    0  0  0 2597.81 4719.24 2348.05    0 4195.65 4498.34 4763.86 4691.05 4608.64 3093.06 5451.76 2033.99    0 591364    0 5000069